sep=;;;;;;;;;;;;;;
ACCELEROMETER X (m/s²);ACCELEROMETER Y (m/s²);ACCELEROMETER Z (m/s²);PROXIMITY (i);SOUND LEVEL (dB);LOCATION Latitude : ;LOCATION Longitude : ;LOCATION Altitude ( m);LOCATION Altitude-google ( m);LOCATION Speed ( Kmh);LOCATION Accuracy ( m);LOCATION ORIENTATION (°);Satellites in range;Time since start in ms ;YYYY-MO-DD HH-MI-SS_SSS
0.237;4.6855;8.7317;8;45.189;NaN;0 / 0;15;2018-04-04 20:27:29:661;;;;;;
-0.9529;3.3495;9.1997;8;37.713;NaN;0 / 0;516;2018-04-04 20:27:30:162;;;;;;
-0.5088;1.7765;9.5852;8;39.235;NaN;0 / 0;1016;2018-04-04 20:27:30:662;;;;;;
-0.4322;1.573;9.7504;8;46.42;NaN;0 / 0;1516;2018-04-04 20:27:31:162;;;;;;
-0.1915;1.9381;9.6103;8;58.339;NaN;0 / 0;2016;2018-04-04 20:27:31:662;;;;;;
-0.1808;2.0279;9.5972;8;46.217;NaN;0 / 0;2516;2018-04-04 20:27:32:162;;;;;;
-0.1413;2.0315;9.6271;8;50.215;NaN;0 / 0;3015;2018-04-04 20:27:32:661;;;;;;
-0.0371;1.968;9.7659;8;52.728;NaN;0 / 0;3516;2018-04-04 20:27:33:162;;;;;;
-0.0826;1.7825;9.6917;8;37.196;NaN;0 / 0;4016;2018-04-04 20:27:33:662;;;;;;
0.012;1.7119;9.6989;8;44.721;NaN;0 / 0;4516;2018-04-04 20:27:34:162;;;;;;
0.0826;1.968;9.5517;8;52.31;NaN;0 / 0;5016;2018-04-04 20:27:34:662;;;;;;
0.091;2.4541;9.5852;8;52.631;NaN;0 / 0;5515;2018-04-04 20:27:35:161;;;;;;
-0.0084;2.3224;9.5457;8;51.434;NaN;0 / 0;6016;2018-04-04 20:27:35:662;;;;;;
-0.1125;2.0853;9.5337;8;62.984;NaN;0 / 0;6516;2018-04-04 20:27:36:162;;;;;;
-0.34;1.6915;9.6247;8;50.246;NaN;0 / 0;7015;2018-04-04 20:27:36:661;;;;;;
-0.3639;1.3168;9.906;8;48.509;NaN;0 / 0;7516;2018-04-04 20:27:37:162;;;;;;
-0.2346;1.1839;9.8833;8;38.106;NaN;0 / 0;8016;2018-04-04 20:27:37:662;;;;;;
-0.2059;1.2713;9.7839;8;36.995;NaN;0 / 0;8516;2018-04-04 20:27:38:162;;;;;;
-0.3352;1.3862;9.6774;8;60.108;NaN;0 / 0;9016;2018-04-04 20:27:38:662;;;;;;
-0.3699;1.2246;9.6199;8;48.816;NaN;0 / 0;9515;2018-04-04 20:27:39:161;;;;;;
-0.4214;1.0163;9.7863;8;46.05;NaN;0 / 0;10016;2018-04-04 20:27:39:662;;;;;;
-0.4513;0.9373;9.9024;8;42.117;NaN;0 / 0;10516;2018-04-04 20:27:40:162;;;;;;
-0.3627;0.8835;9.985;8;46.062;NaN;0 / 0;11016;2018-04-04 20:27:40:662;;;;;;
-0.3699;0.9816;9.736;8;33.225;NaN;0 / 0;11516;2018-04-04 20:27:41:162;;;;;;
-0.4322;1.0487;9.7229;8;37.247;NaN;0 / 0;12016;2018-04-04 20:27:41:662;;;;;;
-0.4393;1.1408;9.8318;8;40.346;NaN;0 / 0;12516;2018-04-04 20:27:42:162;;;;;;
-0.51;1.1815;9.76;8;45.859;NaN;0 / 0;13015;2018-04-04 20:27:42:661;;;;;;
-0.6309;1.1779;9.7648;8;37.105;NaN;0 / 0;13516;2018-04-04 20:27:43:162;;;;;;
-0.6021;1.002;9.7971;8;53.323;NaN;0 / 0;14016;2018-04-04 20:27:43:662;;;;;;
-0.4836;1.0247;9.8833;8;61.652;NaN;0 / 0;14516;2018-04-04 20:27:44:162;;;;;;
-0.3136;1.136;9.8593;8;64.851;NaN;0 / 0;15015;2018-04-04 20:27:44:661;;;;;;
-0.249;1.1193;9.6881;8;54.481;NaN;0 / 0;15516;2018-04-04 20:27:45:162;;;;;;
-0.3208;1.2079;9.657;8;58.98;NaN;0 / 0;16016;2018-04-04 20:27:45:662;;;;;;
-0.3232;1.2246;9.7624;8;48.247;NaN;0 / 0;16516;2018-04-04 20:27:46:162;;;;;;
-0.2993;1.2378;9.8964;8;52.876;NaN;0 / 0;17016;2018-04-04 20:27:46:662;;;;;;
-0.2514;1.3204;9.8665;8;60.837;NaN;0 / 0;17515;2018-04-04 20:27:47:161;;;;;;
-0.1867;1.221;9.7612;8;52.937;NaN;0 / 0;18016;2018-04-04 20:27:47:662;;;;;;
-0.2358;1.1325;9.7097;8;35.575;NaN;0 / 0;18516;2018-04-04 20:27:48:162;;;;;;
-0.2861;1.1768;9.6534;8;32.861;NaN;0 / 0;19016;2018-04-04 20:27:48:662;;;;;;
-0.2897;1.4449;9.6367;8;41.361;NaN;0 / 0;19516;2018-04-04 20:27:49:162;;;;;;
-0.3041;1.6592;9.7779;8;33.195;NaN;0 / 0;20016;2018-04-04 20:27:49:662;;;;;;
-0.316;1.7909;9.8426;8;43.237;NaN;0 / 0;20516;2018-04-04 20:27:50:162;;;;;;
-0.3903;1.6747;9.8007;8;35.424;NaN;0 / 0;21016;2018-04-04 20:27:50:662;;;;;;
-0.5363;1.5191;9.5804;8;33.065;NaN;0 / 0;21516;2018-04-04 20:27:51:162;;;;;;
-0.6393;1.4772;9.839;8;32.91;NaN;0 / 0;22016;2018-04-04 20:27:51:662;;;;;;
-0.8176;1.5323;9.7181;8;32.963;NaN;0 / 0;22516;2018-04-04 20:27:52:162;;;;;;
-0.595;1.9309;9.7719;8;38.609;NaN;0 / 0;23016;2018-04-04 20:27:52:662;;;;;;
-0.5914;2.2517;9.7288;8;43.736;NaN;0 / 0;23516;2018-04-04 20:27:53:162;;;;;;
-0.5794;2.2039;9.8414;8;43.419;NaN;0 / 0;24016;2018-04-04 20:27:53:662;;;;;;
-0.6584;2.2027;9.4475;8;33.048;NaN;0 / 0;24516;2018-04-04 20:27:54:162;;;;;;
-0.8475;2.0016;9.566;8;32.779;NaN;0 / 0;25016;2018-04-04 20:27:54:662;;;;;;
-0.9673;2.0051;9.3865;8;33.233;NaN;0 / 0;25516;2018-04-04 20:27:55:162;;;;;;
-0.6812;2.5462;9.4511;8;33.44;NaN;0 / 0;26016;2018-04-04 20:27:55:662;;;;;;
-0.7027;3.0059;9.5301;8;46.89;NaN;0 / 0;26516;2018-04-04 20:27:56:162;;;;;;
-0.6907;3.6129;9.2117;8;37.347;NaN;0 / 0;27016;2018-04-04 20:27:56:662;;;;;;
-0.7709;3.0694;9.3649;8;61.302;NaN;0 / 0;27516;2018-04-04 20:27:57:162;;;;;;
-0.7709;2.3511;9.6845;8;34.664;NaN;0 / 0;28016;2018-04-04 20:27:57:662;;;;;;
-0.9768;2.4205;9.5816;8;61.223;NaN;0 / 0;28516;2018-04-04 20:27:58:162;;;;;;
-0.7877;1.834;9.317;8;33.855;NaN;0 / 0;29016;2018-04-04 20:27:58:662;;;;;;
-0.9038;2.3679;9.6271;8;34.957;NaN;0 / 0;29515;2018-04-04 20:27:59:161;;;;;;
-0.7638;3.2238;9.3601;8;48.004;NaN;0 / 0;30016;2018-04-04 20:27:59:662;;;;;;
-0.9134;2.9688;9.3841;8;33.963;NaN;0 / 0;30516;2018-04-04 20:28:00:162;;;;;;
-0.6584;2.4469;9.7025;8;31.313;NaN;0 / 0;31015;2018-04-04 20:28:00:661;;;;;;
-0.4106;1.5838;9.7935;8;32.407;NaN;0 / 0;31515;2018-04-04 20:28:01:161;;;;;;
-0.1712;1.5095;9.4822;8;31.589;NaN;0 / 0;32016;2018-04-04 20:28:01:662;;;;;;
-0.2717;1.7645;9.5972;8;30.359;NaN;0 / 0;32516;2018-04-04 20:28:02:162;;;;;;
-0.0874;2.2075;9.8114;8;30.388;NaN;0 / 0;33015;2018-04-04 20:28:02:661;;;;;;
0.0108;2.3882;9.5517;8;31.123;NaN;0 / 0;33516;2018-04-04 20:28:03:162;;;;;;
-0.0599;2.387;9.4978;8;34.317;NaN;0 / 0;34016;2018-04-04 20:28:03:662;;;;;;
-0.158;2.071;9.8474;8;42.688;NaN;0 / 0;34516;2018-04-04 20:28:04:162;;;;;;
-0.2945;1.7358;9.7432;8;53.397;NaN;0 / 0;35015;2018-04-04 20:28:04:661;;;;;;
-0.1987;1.8675;9.4535;8;45.038;NaN;0 / 0;35516;2018-04-04 20:28:05:162;;;;;;
-0.067;2.3439;9.3685;8;63.027;NaN;0 / 0;36016;2018-04-04 20:28:05:662;;;;;;
-0.0168;2.6157;9.4511;8;30.576;NaN;0 / 0;36516;2018-04-04 20:28:06:162;;;;;;
0.0263;2.8467;9.596;8;51.513;NaN;0 / 0;37016;2018-04-04 20:28:06:662;;;;;;
0.0778;2.411;9.56;8;60.774;NaN;0 / 0;37516;2018-04-04 20:28:07:162;;;;;;
0.0491;2.0435;9.6043;8;49.512;NaN;0 / 0;38016;2018-04-04 20:28:07:662;;;;;;
-0.006;2.077;9.566;8;36.886;NaN;0 / 0;38516;2018-04-04 20:28:08:162;;;;;;
-0.0263;2.3655;9.3829;8;42.207;NaN;0 / 0;39016;2018-04-04 20:28:08:662;;;;;;
0.2251;2.7617;9.3793;8;37.69;NaN;0 / 0;39516;2018-04-04 20:28:09:162;;;;;;
0.4178;2.7988;9.5948;8;39.431;NaN;0 / 0;40016;2018-04-04 20:28:09:662;;;;;;
0.2921;2.6779;9.4798;8;61.137;NaN;0 / 0;40515;2018-04-04 20:28:10:161;;;;;;
0.0946;2.2637;9.4523;8;38.533;NaN;0 / 0;41016;2018-04-04 20:28:10:662;;;;;;
0.1077;1.9465;9.7767;8;46.508;NaN;0 / 0;41516;2018-04-04 20:28:11:162;;;;;;
0.1125;2.1703;9.5996;8;45.565;NaN;0 / 0;42016;2018-04-04 20:28:11:662;;;;;;
0.316;2.5043;9.5062;8;45.936;NaN;0 / 0;42516;2018-04-04 20:28:12:162;;;;;;
0.4357;2.6755;9.42;8;44.579;NaN;0 / 0;43016;2018-04-04 20:28:12:662;;;;;;
0.431;2.551;9.4559;8;46.656;NaN;0 / 0;43516;2018-04-04 20:28:13:162;;;;;;
0.4489;2.2422;9.6223;8;46.993;NaN;0 / 0;44016;2018-04-04 20:28:13:662;;;;;;
0.4357;2.0423;9.5852;8;46.465;NaN;0 / 0;44515;2018-04-04 20:28:14:161;;;;;;
0.4477;1.9154;9.4894;8;45.324;NaN;0 / 0;45016;2018-04-04 20:28:14:662;;;;;;
0.5854;2.0842;9.5241;8;44.6;NaN;0 / 0;45516;2018-04-04 20:28:15:162;;;;;;
0.7697;2.3966;9.3637;8;44.13;NaN;0 / 0;46016;2018-04-04 20:28:15:662;;;;;;
0.808;2.4708;9.3051;8;44.895;NaN;0 / 0;46516;2018-04-04 20:28:16:162;;;;;;
0.8547;2.3667;9.6115;8;36.975;NaN;0 / 0;47016;2018-04-04 20:28:16:662;;;;;;
0.9625;2.1009;9.6726;8;38.054;NaN;0 / 0;47516;2018-04-04 20:28:17:162;;;;;;
0.9864;2.0159;9.4272;8;38.414;NaN;0 / 0;48016;2018-04-04 20:28:17:662;;;;;;
0.9649;2.0255;9.3781;8;39.346;NaN;0 / 0;48516;2018-04-04 20:28:18:162;;;;;;
0.9876;2.2027;9.5122;8;54.283;NaN;0 / 0;49016;2018-04-04 20:28:18:662;;;;;;
1.0259;2.3224;9.3637;8;46.122;NaN;0 / 0;49516;2018-04-04 20:28:19:162;;;;;;
1.0858;2.387;9.3996;8;41.885;NaN;0 / 0;50016;2018-04-04 20:28:19:662;;;;;;
1.0175;2.4612;9.4942;8;42.479;NaN;0 / 0;50516;2018-04-04 20:28:20:162;;;;;;
1.002;2.3188;9.6127;8;44.161;NaN;0 / 0;51016;2018-04-04 20:28:20:662;;;;;;
1.0116;1.8663;9.5732;8;42.175;NaN;0 / 0;51516;2018-04-04 20:28:21:162;;;;;;
1.0463;1.8759;9.3482;8;43.188;NaN;0 / 0;52015;2018-04-04 20:28:21:661;;;;;;
1.057;2.1632;9.3996;8;43.49;NaN;0 / 0;52516;2018-04-04 20:28:22:162;;;;;;
1.1001;2.2194;9.4834;8;44.556;NaN;0 / 0;53016;2018-04-04 20:28:22:662;;;;;;
1.1085;2.3331;9.4463;8;47.942;NaN;0 / 0;53516;2018-04-04 20:28:23:162;;;;;;
1.1325;2.4157;9.5984;8;46.595;NaN;0 / 0;54016;2018-04-04 20:28:23:662;;;;;;
1.1384;2.2158;9.6295;8;42.047;NaN;0 / 0;54516;2018-04-04 20:28:24:162;;;;;;
1.0546;1.9836;9.4523;8;44.067;NaN;0 / 0;55016;2018-04-04 20:28:24:662;;;;;;
0.9313;1.9393;9.4583;8;45.956;NaN;0 / 0;55516;2018-04-04 20:28:25:162;;;;;;
0.8475;2.0183;9.4092;8;41.816;NaN;0 / 0;56015;2018-04-04 20:28:25:661;;;;;;
0.8667;2.2649;9.3817;8;42.68;NaN;0 / 0;56516;2018-04-04 20:28:26:162;;;;;;
0.9541;2.6264;9.5002;8;41.783;NaN;0 / 0;57016;2018-04-04 20:28:26:662;;;;;;
0.9673;2.5486;9.5984;8;55.831;NaN;0 / 0;57516;2018-04-04 20:28:27:162;;;;;;
0.8775;2.083;9.5517;8;50.429;NaN;0 / 0;58016;2018-04-04 20:28:27:662;;;;;;
0.8308;1.8603;9.414;8;34.983;NaN;0 / 0;58515;2018-04-04 20:28:28:161;;;;;;
0.8212;1.9525;9.4068;8;37.033;NaN;0 / 0;59016;2018-04-04 20:28:28:662;;;;;;
0.814;2.2374;9.4727;8;38.43;NaN;0 / 0;59516;2018-04-04 20:28:29:162;;;;;;
0.8631;2.6576;9.3697;8;38.365;NaN;0 / 0;60016;2018-04-04 20:28:29:662;;;;;;
0.9337;2.8323;9.3733;8;40.987;NaN;0 / 0;60515;2018-04-04 20:28:30:161;;;;;;
0.8631;2.7593;9.5074;8;44.896;NaN;0 / 0;61016;2018-04-04 20:28:30:662;;;;;;
0.808;2.2661;9.5529;8;62.394;NaN;0 / 0;61516;2018-04-04 20:28:31:162;;;;;;
0.8056;1.9321;9.4739;8;65.426;NaN;0 / 0;62016;2018-04-04 20:28:31:662;;;;;;
0.82;2.0961;9.5205;8;62.53;NaN;0 / 0;62516;2018-04-04 20:28:32:162;;;;;;
0.8128;2.4588;9.4008;8;55.649;NaN;0 / 0;63016;2018-04-04 20:28:32:662;;;;;;
0.8679;2.8635;9.3194;8;38.34;NaN;0 / 0;63516;2018-04-04 20:28:33:162;;;;;;
0.8942;2.8587;9.5062;8;36.093;NaN;0 / 0;64015;2018-04-04 20:28:33:661;;;;;;
1.0068;2.5881;9.5505;8;40.423;NaN;0 / 0;64516;2018-04-04 20:28:34:162;;;;;;
1.0738;2.235;9.3398;8;39.137;NaN;0 / 0;65016;2018-04-04 20:28:34:662;;;;;;
0.9852;2.1165;9.3434;8;44.011;NaN;0 / 0;65516;2018-04-04 20:28:35:162;;;;;;
1.0702;2.2853;9.4451;8;59.55;NaN;0 / 0;66016;2018-04-04 20:28:35:662;;;;;;
1.1708;2.6528;9.4511;8;54.416;NaN;0 / 0;66515;2018-04-04 20:28:36:161;;;;;;
1.1444;2.9808;9.2907;8;41.792;NaN;0 / 0;67016;2018-04-04 20:28:36:662;;;;;;
1.0271;2.8659;9.3326;8;35.31;NaN;0 / 0;67516;2018-04-04 20:28:37:162;;;;;;
0.9505;2.3511;9.4212;8;59.247;NaN;0 / 0;68016;2018-04-04 20:28:37:662;;;;;;
0.7649;2.241;9.3338;8;39.294;NaN;0 / 0;68516;2018-04-04 20:28:38:162;;;;;;
2.9532;3.5374;6.8331;8;43.436;NaN;0 / 0;69015;2018-04-04 20:28:38:661;;;;;;
1.8316;-1.3862;9.9276;8;52.114;NaN;0 / 0;69516;2018-04-04 20:28:39:162;;;;;;
2.6516;0.0479;9.2919;8;51.886;NaN;0 / 0;70016;2018-04-04 20:28:39:662;;;;;;
2.7593;0.34;9.3853;8;58.197;NaN;0 / 0;70516;2018-04-04 20:28:40:162;;;;;;
3.2262;1.0894;9.3254;8;57.27;NaN;0 / 0;71016;2018-04-04 20:28:40:662;;;;;;
0.9697;2.4792;9.3482;8;54.189;NaN;0 / 0;71516;2018-04-04 20:28:41:162;;;;;;
0.2562;2.7904;9.1183;8;40.868;NaN;0 / 0;72016;2018-04-04 20:28:41:662;;;;;;
0.2801;2.8695;9.268;8;44.061;NaN;0 / 0;72516;2018-04-04 20:28:42:162;;;;;;
0.753;2.6719;9.3781;8;38.71;NaN;0 / 0;73016;2018-04-04 20:28:42:662;;;;;;
1.0283;2.5881;9.396;8;38.619;NaN;0 / 0;73516;2018-04-04 20:28:43:162;;;;;;
1.1899;2.5857;9.5912;8;40.31;NaN;0 / 0;74015;2018-04-04 20:28:43:661;;;;;;
0.978;2.5199;9.6163;8;55.909;NaN;0 / 0;74516;2018-04-04 20:28:44:162;;;;;;
0.3041;2.6947;9.3039;8;38.126;NaN;0 / 0;75016;2018-04-04 20:28:44:662;;;;;;
0.1413;2.9939;9.1087;8;47.261;NaN;0 / 0;75516;2018-04-04 20:28:45:162;;;;;;
0.5136;2.8323;9.2955;8;37.742;NaN;0 / 0;76016;2018-04-04 20:28:45:662;;;;;;
0.7889;2.7186;9.4152;8;37.327;NaN;0 / 0;76516;2018-04-04 20:28:46:162;;;;;;
1.1181;2.5474;9.5253;8;37.358;NaN;0 / 0;77016;2018-04-04 20:28:46:662;;;;;;
0.8751;2.5917;9.4092;8;41.547;NaN;0 / 0;77516;2018-04-04 20:28:47:162;;;;;;
0.4597;2.8635;9.3673;8;40.495;NaN;0 / 0;78016;2018-04-04 20:28:47:662;;;;;;
0.3136;2.9245;9.3541;8;40.559;NaN;0 / 0;78516;2018-04-04 20:28:48:162;;;;;;
0.3352;2.8072;9.3134;8;39.494;NaN;0 / 0;79015;2018-04-04 20:28:48:661;;;;;;
0.6428;2.7785;9.3649;8;44.286;NaN;0 / 0;79516;2018-04-04 20:28:49:162;;;;;;
0.9062;2.6827;9.4367;8;43.12;NaN;0 / 0;80016;2018-04-04 20:28:49:662;;;;;;
0.9278;2.5809;9.4834;8;38.804;NaN;0 / 0;80516;2018-04-04 20:28:50:162;;;;;;
0.7015;2.6588;9.4715;8;57.597;NaN;0 / 0;81016;2018-04-04 20:28:50:662;;;;;;
0.4286;2.7821;9.2261;8;57.711;NaN;0 / 0;81515;2018-04-04 20:28:51:161;;;;;;
0.261;2.9042;9.2644;8;45.153;NaN;0 / 0;82016;2018-04-04 20:28:51:662;;;;;;
0.3436;2.9066;9.4595;8;36.738;NaN;0 / 0;82516;2018-04-04 20:28:52:162;;;;;;
0.7673;2.6408;9.4966;8;36.727;NaN;0 / 0;83016;2018-04-04 20:28:52:662;;;;;;
0.9984;2.49;9.4248;8;38.294;NaN;0 / 0;83516;2018-04-04 20:28:53:162;;;;;;
0.6656;2.6887;9.3111;8;41.684;NaN;0 / 0;84016;2018-04-04 20:28:53:662;;;;;;
0.4561;2.8132;9.3134;8;44.035;NaN;0 / 0;84516;2018-04-04 20:28:54:162;;;;;;
0.395;2.7988;9.4703;8;56.562;NaN;0 / 0;85016;2018-04-04 20:28:54:662;;;;;;
0.4262;2.7689;9.4068;8;50.131;NaN;0 / 0;85516;2018-04-04 20:28:55:162;;;;;;
0.7111;2.6671;9.3182;8;36.128;NaN;0 / 0;86016;2018-04-04 20:28:55:662;;;;;;
0.8811;2.6049;9.4523;8;36.739;NaN;0 / 0;86516;2018-04-04 20:28:56:162;;;;;;
0.808;2.6169;9.5217;8;38.516;NaN;0 / 0;87016;2018-04-04 20:28:56:662;;;;;;
0.6285;2.7497;9.4487;8;38.45;NaN;0 / 0;87516;2018-04-04 20:28:57:162;;;;;;
0.4357;2.7809;9.3302;8;59.351;NaN;0 / 0;88016;2018-04-04 20:28:57:662;;;;;;
0.2837;2.7485;9.2261;8;62.484;NaN;0 / 0;88516;2018-04-04 20:28:58:162;;;;;;
0.4525;2.7138;9.2823;8;38.737;NaN;0 / 0;89016;2018-04-04 20:28:58:662;;;;;;
0.8715;2.6468;9.4894;8;62.208;NaN;0 / 0;89516;2018-04-04 20:28:59:162;;;;;;
0.9337;2.6169;9.5457;8;58.188;NaN;0 / 0;90016;2018-04-04 20:28:59:662;;;;;;
0.8224;2.636;9.3996;8;37.033;NaN;0 / 0;90516;2018-04-04 20:29:00:162;;;;;;
0.5243;2.7665;9.3996;8;37.931;NaN;0 / 0;91016;2018-04-04 20:29:00:662;;;;;;
0.2933;2.8611;9.4188;8;35.307;NaN;0 / 0;91516;2018-04-04 20:29:01:162;;;;;;
0.3376;2.7773;9.3134;8;35.12;NaN;0 / 0;92016;2018-04-04 20:29:01:662;;;;;;
0.5076;2.7031;9.2727;8;35.507;NaN;0 / 0;92516;2018-04-04 20:29:02:162;;;;;;
0.808;2.6671;9.3661;8;48.272;NaN;0 / 0;93016;2018-04-04 20:29:02:662;;;;;;
0.9625;2.5821;9.572;8;57.515;NaN;0 / 0;93516;2018-04-04 20:29:03:162;;;;;;
0.7207;2.6588;9.5756;8;54.092;NaN;0 / 0;94016;2018-04-04 20:29:03:662;;;;;;
0.4764;2.8012;9.4427;8;41.398;NaN;0 / 0;94516;2018-04-04 20:29:04:162;;;;;;
0.2693;2.879;9.2739;8;37.685;NaN;0 / 0;95016;2018-04-04 20:29:04:662;;;;;;
0.3172;2.745;9.268;8;57.117;NaN;0 / 0;95516;2018-04-04 20:29:05:162;;;;;;
0.6345;2.6719;9.347;8;51.517;NaN;0 / 0;96016;2018-04-04 20:29:05:662;;;;;;
0.8871;2.6528;9.3685;8;45.251;NaN;0 / 0;96516;2018-04-04 20:29:06:162;;;;;;
0.9792;2.5666;9.5038;8;48.63;NaN;0 / 0;97016;2018-04-04 20:29:06:662;;;;;;
0.7434;2.6683;9.4751;8;49.306;NaN;0 / 0;97515;2018-04-04 20:29:07:161;;;;;;
0.328;2.8551;9.396;8;37.285;NaN;0 / 0;98016;2018-04-04 20:29:07:662;;;;;;
0.1939;2.9365;9.4403;8;34.766;NaN;0 / 0;98516;2018-04-04 20:29:08:162;;;;;;
0.3998;2.7857;9.3589;8;35.341;NaN;0 / 0;99016;2018-04-04 20:29:08:662;;;;;;
0.6524;2.7497;9.2344;8;38.472;NaN;0 / 0;99516;2018-04-04 20:29:09:162;;;;;;
0.6728;2.7701;9.4763;8;44.987;NaN;0 / 0;100016;2018-04-04 20:29:09:662;;;;;;
0.6141;2.8539;9.42;8;40.908;NaN;0 / 0;100516;2018-04-04 20:29:10:162;;;;;;
0.5387;2.7318;9.396;8;34.845;NaN;0 / 0;101016;2018-04-04 20:29:10:662;;;;;;
0.3771;2.8264;9.4547;8;36.303;NaN;0 / 0;101516;2018-04-04 20:29:11:162;;;;;;
0.3388;2.8659;9.2751;8;35.204;NaN;0 / 0;102016;2018-04-04 20:29:11:662;;;;;;
0.5351;2.7557;9.2608;8;36.277;NaN;0 / 0;102516;2018-04-04 20:29:12:162;;;;;;
0.7721;2.5905;9.4403;8;39.659;NaN;0 / 0;103016;2018-04-04 20:29:12:662;;;;;;
0.7326;2.7054;9.5014;8;36.144;NaN;0 / 0;103516;2018-04-04 20:29:13:162;;;;;;
0.6644;2.7497;9.3984;8;36.569;NaN;0 / 0;104016;2018-04-04 20:29:13:662;;;;;;
0.5052;2.7222;9.3697;8;36.497;NaN;0 / 0;104516;2018-04-04 20:29:14:162;;;;;;
0.3867;2.8168;9.4391;8;37.553;NaN;0 / 0;105016;2018-04-04 20:29:14:662;;;;;;
0.4238;2.909;9.4344;8;36.476;NaN;0 / 0;105516;2018-04-04 20:29:15:162;;;;;;
0.5926;2.6743;9.2428;8;35.936;NaN;0 / 0;106016;2018-04-04 20:29:15:662;;;;;;
0.7386;2.5379;9.3278;8;38.653;NaN;0 / 0;106516;2018-04-04 20:29:16:162;;;;;;
0.7099;2.6947;9.5565;8;38.649;NaN;0 / 0;107015;2018-04-04 20:29:16:661;;;;;;
0.5315;2.8096;9.4008;8;36.068;NaN;0 / 0;107516;2018-04-04 20:29:17:162;;;;;;
0.4872;2.7258;9.4248;8;36.999;NaN;0 / 0;108016;2018-04-04 20:29:17:662;;;;;;
0.4238;2.7378;9.4355;8;39.77;NaN;0 / 0;108516;2018-04-04 20:29:18:162;;;;;;
0.4357;2.7378;9.2237;8;37.174;NaN;0 / 0;109016;2018-04-04 20:29:18:662;;;;;;
0.6548;2.6707;9.335;8;36.31;NaN;0 / 0;109515;2018-04-04 20:29:19:161;;;;;;
0.723;2.7222;9.5074;8;37.43;NaN;0 / 0;110016;2018-04-04 20:29:19:662;;;;;;
0.6153;2.7725;9.4691;8;38.262;NaN;0 / 0;110516;2018-04-04 20:29:20:162;;;;;;
0.346;2.8144;9.3865;8;36.693;NaN;0 / 0;111016;2018-04-04 20:29:20:662;;;;;;
0.2921;2.8862;9.3829;8;36.202;NaN;0 / 0;111516;2018-04-04 20:29:21:162;;;;;;
0.3388;2.8886;9.3553;8;46.348;NaN;0 / 0;112016;2018-04-04 20:29:21:662;;;;;;
0.4034;2.8395;9.232;8;52.403;NaN;0 / 0;112516;2018-04-04 20:29:22:162;;;;;;
0.6369;2.8024;9.3913;8;55.812;NaN;0 / 0;113016;2018-04-04 20:29:22:662;;;;;;
0.7219;2.7725;9.5852;8;48.144;NaN;0 / 0;113516;2018-04-04 20:29:23:162;;;;;;
0.3244;2.8276;9.4116;8;35.749;NaN;0 / 0;114016;2018-04-04 20:29:23:662;;;;;;
0.2298;2.9341;9.2811;8;35.227;NaN;0 / 0;114516;2018-04-04 20:29:24:162;;;;;;
0.3615;2.8826;9.3158;8;37.972;NaN;0 / 0;115016;2018-04-04 20:29:24:662;;;;;;
0.3783;2.8;9.3529;8;37.053;NaN;0 / 0;115515;2018-04-04 20:29:25:161;;;;;;
0.4645;2.8671;9.2955;8;37.549;NaN;0 / 0;116016;2018-04-04 20:29:25:662;;;;;;
0.5974;2.8108;9.3757;8;35.894;NaN;0 / 0;116516;2018-04-04 20:29:26:162;;;;;;
0.6488;2.6863;9.4679;8;54.018;NaN;0 / 0;117016;2018-04-04 20:29:26:662;;;;;;
0.5112;2.8204;9.4463;8;58.093;NaN;0 / 0;117516;2018-04-04 20:29:27:162;;;;;;
0.2921;2.9544;9.3937;8;56.225;NaN;0 / 0;118015;2018-04-04 20:29:27:661;;;;;;
0.243;2.9616;9.3529;8;54.35;NaN;0 / 0;118516;2018-04-04 20:29:28:162;;;;;;
0.4202;2.7809;9.335;8;50.774;NaN;0 / 0;119016;2018-04-04 20:29:28:662;;;;;;
0.4729;2.8287;9.3529;8;35.369;NaN;0 / 0;119516;2018-04-04 20:29:29:162;;;;;;
0.5914;2.8587;9.4176;8;35.805;NaN;0 / 0;120016;2018-04-04 20:29:29:662;;;;;;
0.65;2.7138;9.4451;8;48.646;NaN;0 / 0;120516;2018-04-04 20:29:30:162;;;;;;
0.4633;2.7031;9.3518;8;39.277;NaN;0 / 0;121015;2018-04-04 20:29:30:661;;;;;;
0.2945;2.9197;9.3577;8;48.55;NaN;0 / 0;121516;2018-04-04 20:29:31:162;;;;;;
0.3855;2.9365;9.3589;8;38.269;NaN;0 / 0;122016;2018-04-04 20:29:31:662;;;;;;
0.4322;2.8371;9.3458;8;35.844;NaN;0 / 0;122516;2018-04-04 20:29:32:162;;;;;;
0.5148;2.7533;9.4607;8;35.319;NaN;0 / 0;123016;2018-04-04 20:29:32:662;;;;;;
0.6189;2.7665;9.4679;8;36.015;NaN;0 / 0;123515;2018-04-04 20:29:33:161;;;;;;
0.5686;2.7749;9.3386;8;37.363;NaN;0 / 0;124016;2018-04-04 20:29:33:662;;;;;;
0.3938;2.8323;9.3374;8;36.05;NaN;0 / 0;124516;2018-04-04 20:29:34:162;;;;;;
0.2909;2.9233;9.3793;8;35.008;NaN;0 / 0;125016;2018-04-04 20:29:34:662;;;;;;
0.4573;2.7665;9.3841;8;35.857;NaN;0 / 0;125516;2018-04-04 20:29:35:162;;;;;;
0.595;2.7653;9.3948;8;34.34;NaN;0 / 0;126016;2018-04-04 20:29:35:662;;;;;;
0.6093;2.891;9.4583;8;35.301;NaN;0 / 0;126515;2018-04-04 20:29:36:161;;;;;;
0.4752;2.8431;9.3434;8;36.559;NaN;0 / 0;127016;2018-04-04 20:29:36:662;;;;;;
0.3388;2.7485;9.2237;8;34.804;NaN;0 / 0;127516;2018-04-04 20:29:37:162;;;;;;
0.3232;2.8048;9.3529;8;34.55;NaN;0 / 0;128016;2018-04-04 20:29:37:662;;;;;;
0.4166;2.8192;9.4463;8;42.992;NaN;0 / 0;128516;2018-04-04 20:29:38:162;;;;;;
0.6189;2.8216;9.4068;8;47.067;NaN;0 / 0;129015;2018-04-04 20:29:38:661;;;;;;
0.7063;2.7797;9.5397;8;45.834;NaN;0 / 0;129516;2018-04-04 20:29:39:162;;;;;;
0.5052;2.7234;9.5457;8;51.593;NaN;0 / 0;130016;2018-04-04 20:29:39:662;;;;;;
0.3005;2.7677;9.2883;8;52.05;NaN;0 / 0;130516;2018-04-04 20:29:40:162;;;;;;
0.0395;2.9928;9.0633;8;36.905;NaN;0 / 0;131016;2018-04-04 20:29:40:662;;;;;;
0.2849;2.8635;9.323;8;36.928;NaN;0 / 0;131516;2018-04-04 20:29:41:162;;;;;;
0.6608;2.6228;9.5481;8;37.03;NaN;0 / 0;132016;2018-04-04 20:29:41:662;;;;;;
0.832;2.6588;9.56;8;37.116;NaN;0 / 0;132516;2018-04-04 20:29:42:162;;;;;;
0.8045;2.7581;9.511;8;35.77;NaN;0 / 0;133016;2018-04-04 20:29:42:662;;;;;;
0.34;2.7857;9.3817;8;36.586;NaN;0 / 0;133516;2018-04-04 20:29:43:162;;;;;;
-0.0156;2.9006;9.2081;8;37.046;NaN;0 / 0;134015;2018-04-04 20:29:43:661;;;;;;
0.0407;2.9796;9.2368;8;36.201;NaN;0 / 0;134516;2018-04-04 20:29:44:162;;;;;;
0.4058;2.8216;9.329;8;35.885;NaN;0 / 0;135016;2018-04-04 20:29:44:662;;;;;;
0.7709;2.6624;9.4978;8;35.063;NaN;0 / 0;135516;2018-04-04 20:29:45:162;;;;;;
0.9924;2.6324;9.6415;8;34.788;NaN;0 / 0;136016;2018-04-04 20:29:45:662;;;;;;
0.7266;2.6947;9.5457;8;38.758;NaN;0 / 0;136516;2018-04-04 20:29:46:162;;;;;;
0.1101;2.8659;9.2895;8;36.289;NaN;0 / 0;137016;2018-04-04 20:29:46:662;;;;;;
-0.176;2.9437;9.1315;8;38.124;NaN;0 / 0;137516;2018-04-04 20:29:47:162;;;;;;
0.2837;2.9712;9.3158;8;40.863;NaN;0 / 0;138016;2018-04-04 20:29:47:662;;;;;;
0.656;2.8323;9.4942;8;39.453;NaN;0 / 0;138516;2018-04-04 20:29:48:162;;;;;;
0.8021;2.569;9.4559;8;37.633;NaN;0 / 0;139016;2018-04-04 20:29:48:662;;;;;;
0.7901;2.5606;9.4044;8;38.681;NaN;0 / 0;139516;2018-04-04 20:29:49:162;;;;;;
0.4657;2.7952;9.4667;8;38.661;NaN;0 / 0;140016;2018-04-04 20:29:49:662;;;;;;
0.0982;3.0335;9.4332;8;36.688;NaN;0 / 0;140516;2018-04-04 20:29:50:162;;;;;;
-0.073;3.0083;9.2823;8;37.086;NaN;0 / 0;141016;2018-04-04 20:29:50:662;;;;;;
0.3196;2.7581;9.2356;8;36.478;NaN;0 / 0;141516;2018-04-04 20:29:51:162;;;;;;
0.7997;2.6372;9.5026;8;36.507;NaN;0 / 0;142016;2018-04-04 20:29:51:662;;;;;;
0.9002;2.6085;9.5828;8;36.138;NaN;0 / 0;142516;2018-04-04 20:29:52:162;;;;;;
0.6357;2.6588;9.3649;8;37.181;NaN;0 / 0;143016;2018-04-04 20:29:52:662;;;;;;
0.2035;2.8108;9.3482;8;38.977;NaN;0 / 0;143516;2018-04-04 20:29:53:162;;;;;;
0.0132;2.9485;9.4643;8;36.669;NaN;0 / 0;144016;2018-04-04 20:29:53:662;;;;;;
0.2095;2.8838;9.3769;8;37.204;NaN;0 / 0;144515;2018-04-04 20:29:54:161;;;;;;
0.5962;2.7378;9.3134;8;35.498;NaN;0 / 0;145016;2018-04-04 20:29:54:662;;;;;;
0.7398;2.6659;9.4224;8;35.854;NaN;0 / 0;145516;2018-04-04 20:29:55:162;;;;;;
0.6105;2.6169;9.4367;8;36.387;NaN;0 / 0;146016;2018-04-04 20:29:55:662;;;;;;
0.4405;2.7186;9.4367;8;35.928;NaN;0 / 0;146516;2018-04-04 20:29:56:162;;;;;;
0.2717;2.9018;9.4068;8;37.004;NaN;0 / 0;147015;2018-04-04 20:29:56:661;;;;;;
0.2047;2.8156;9.3027;8;36.02;NaN;0 / 0;147516;2018-04-04 20:29:57:162;;;;;;
0.4405;2.7497;9.4284;8;36.562;NaN;0 / 0;148016;2018-04-04 20:29:57:662;;;;;;
0.6404;2.7809;9.5086;8;35.364;NaN;0 / 0;148516;2018-04-04 20:29:58:162;;;;;;
0.7003;2.6647;9.4092;8;35.183;NaN;0 / 0;149016;2018-04-04 20:29:58:662;;;;;;
0.4345;2.7402;9.4583;8;34.903;NaN;0 / 0;149516;2018-04-04 20:29:59:162;;;;;;
0.2179;2.8455;9.3721;8;48.29;NaN;0 / 0;150016;2018-04-04 20:29:59:662;;;;;;
0.2861;2.7701;9.2632;8;49.642;NaN;0 / 0;150516;2018-04-04 20:30:00:162;;;;;;
0.4764;2.7282;9.4296;8;53.494;NaN;0 / 0;151016;2018-04-04 20:30:00:662;;;;;;
0.3699;3.1352;9.3254;8;51.957;NaN;0 / 0;151516;2018-04-04 20:30:01:162;;;;;;
0.5255;2.8335;9.396;8;56.779;NaN;0 / 0;152016;2018-04-04 20:30:01:662;;;;;;
0.4633;2.8359;9.4523;8;60.938;NaN;0 / 0;152516;2018-04-04 20:30:02:162;;;;;;
0.1999;3.0215;9.3577;8;43.508;NaN;0 / 0;153016;2018-04-04 20:30:02:662;;;;;;
0.0802;3.0957;9.2261;8;44.371;NaN;0 / 0;153516;2018-04-04 20:30:03:162;;;;;;
0.2322;2.9461;9.335;8;38.44;NaN;0 / 0;154016;2018-04-04 20:30:03:662;;;;;;
0.334;2.8754;9.3314;8;38.186;NaN;0 / 0;154516;2018-04-04 20:30:04:162;;;;;;
0.5219;2.8587;9.3146;8;43.284;NaN;0 / 0;155016;2018-04-04 20:30:04:662;;;;;;
0.5339;2.9628;9.511;8;38.981;NaN;0 / 0;155516;2018-04-04 20:30:05:162;;;;;;
0.2658;2.9975;9.4643;8;36.906;NaN;0 / 0;156016;2018-04-04 20:30:05:662;;;;;;
0.1604;2.9437;9.2273;8;38.921;NaN;0 / 0;156516;2018-04-04 20:30:06:162;;;;;;
0.146;2.6995;9.1351;8;44.82;NaN;0 / 0;157016;2018-04-04 20:30:06:662;;;;;;
0.5016;2.66;9.4164;8;38.048;NaN;0 / 0;157515;2018-04-04 20:30:07:161;;;;;;
0.6357;2.8192;9.4858;8;37.679;NaN;0 / 0;158016;2018-04-04 20:30:07:662;;;;;;
0.6069;2.6671;9.4882;8;35.429;NaN;0 / 0;158516;2018-04-04 20:30:08:162;;;;;;
0.3292;2.7833;9.2512;8;37.057;NaN;0 / 0;159016;2018-04-04 20:30:08:662;;;;;;
0.3615;2.9353;9.4008;8;36.264;NaN;0 / 0;159516;2018-04-04 20:30:09:162;;;;;;
0.4681;2.9197;9.5517;8;36.776;NaN;0 / 0;160015;2018-04-04 20:30:09:661;;;;;;
0.4501;2.8323;9.4763;8;35.992;NaN;0 / 0;160516;2018-04-04 20:30:10:162;;;;;;
0.6165;2.5929;9.4116;8;36.527;NaN;0 / 0;161015;2018-04-04 20:30:10:661;;;;;;
0.6871;2.7354;9.4116;8;37.287;NaN;0 / 0;161516;2018-04-04 20:30:11:162;;;;;;
0.2729;3.1472;9.1937;8;40.136;NaN;0 / 0;162016;2018-04-04 20:30:11:662;;;;;;
0.2346;3.0478;9.2165;8;34.99;NaN;0 / 0;162516;2018-04-04 20:30:12:162;;;;;;
0.2729;2.9509;9.3996;8;41.517;NaN;0 / 0;163016;2018-04-04 20:30:12:662;;;;;;
0.4573;2.9712;9.481;8;35.391;NaN;0 / 0;163515;2018-04-04 20:30:13:161;;;;;;
0.6584;2.794;9.5457;8;35.11;NaN;0 / 0;164016;2018-04-04 20:30:13:662;;;;;;
0.6859;2.715;9.396;8;35.979;NaN;0 / 0;164516;2018-04-04 20:30:14:162;;;;;;
0.2777;2.885;9.2285;8;34.867;NaN;0 / 0;165016;2018-04-04 20:30:14:662;;;;;;
-0.012;3.3004;9.1028;8;34.758;NaN;0 / 0;165516;2018-04-04 20:30:15:162;;;;;;
0.1077;3.3208;9.2608;8;38.534;NaN;0 / 0;166016;2018-04-04 20:30:15:662;;;;;;
0.431;3.0981;9.3948;8;41.193;NaN;0 / 0;166516;2018-04-04 20:30:16:162;;;;;;
0.6273;2.8742;9.3458;8;60.9;NaN;0 / 0;167016;2018-04-04 20:30:16:662;;;;;;
0.401;2.9592;9.4116;8;59.441;NaN;0 / 0;167516;2018-04-04 20:30:17:162;;;;;;
0.3148;2.9712;9.4822;8;34.881;NaN;0 / 0;168016;2018-04-04 20:30:17:662;;;;;;
0.2466;2.9125;9.3565;8;55.826;NaN;0 / 0;168516;2018-04-04 20:30:18:162;;;;;;
0.0934;2.9521;9.0968;8;35.172;NaN;0 / 0;169016;2018-04-04 20:30:18:662;;;;;;
0.4022;2.9125;9.2632;8;36.35;NaN;0 / 0;169516;2018-04-04 20:30:19:162;;;;;;
1.0511;2.2936;9.6379;8;37.075;NaN;0 / 0;170016;2018-04-04 20:30:19:662;;;;;;
1.172;2.0901;9.6235;8;34.702;NaN;0 / 0;170516;2018-04-04 20:30:20:162;;;;;;
0.9254;2.332;9.5996;8;35.014;NaN;0 / 0;171016;2018-04-04 20:30:20:662;;;;;;
0.6045;2.6133;9.6007;8;55.546;NaN;0 / 0;171516;2018-04-04 20:30:21:162;;;;;;
0.1532;2.5558;9.2727;8;34.732;NaN;0 / 0;172015;2018-04-04 20:30:21:661;;;;;;
0.0419;2.7031;9.0585;8;36.371;NaN;0 / 0;172516;2018-04-04 20:30:22:162;;;;;;
0.3723;2.9269;9.3134;8;42.359;NaN;0 / 0;173016;2018-04-04 20:30:22:662;;;;;;
0.7997;2.66;9.5253;8;36.516;NaN;0 / 0;173516;2018-04-04 20:30:23:162;;;;;;
0.8475;2.5833;9.5062;8;35.728;NaN;0 / 0;174016;2018-04-04 20:30:23:662;;;;;;
0.7278;2.6252;9.5792;8;37.411;NaN;0 / 0;174516;2018-04-04 20:30:24:162;;;;;;
0.2945;2.9066;9.3865;8;35.407;NaN;0 / 0;175016;2018-04-04 20:30:24:662;;;;;;
-0.1161;3.1089;9.1518;8;36.612;NaN;0 / 0;175516;2018-04-04 20:30:25:162;;;;;;
-0.0335;2.909;9.1578;8;37.268;NaN;0 / 0;176016;2018-04-04 20:30:25:662;;;;;;
0.3795;2.7294;9.2943;8;38.628;NaN;0 / 0;176516;2018-04-04 20:30:26:162;;;;;;
0.9756;2.6803;9.6474;8;40.197;NaN;0 / 0;177016;2018-04-04 20:30:26:662;;;;;;
0.8787;2.7066;9.6079;8;38.91;NaN;0 / 0;177516;2018-04-04 20:30:27:162;;;;;;
0.3208;2.8455;9.3745;8;41.998;NaN;0 / 0;178016;2018-04-04 20:30:27:662;;;;;;
-0.1508;3.0143;9.3075;8;41.698;NaN;0 / 0;178516;2018-04-04 20:30:28:162;;;;;;
-0.2251;3.1268;9.2428;8;50.304;NaN;0 / 0;179015;2018-04-04 20:30:28:661;;;;;;
0.1437;3.0095;9.2261;8;50.583;NaN;0 / 0;179516;2018-04-04 20:30:29:162;;;;;;
0.589;2.7043;9.396;8;46.73;NaN;0 / 0;180016;2018-04-04 20:30:29:662;;;;;;
0.7997;2.6288;9.4786;8;49.624;NaN;0 / 0;180516;2018-04-04 20:30:30:162;;;;;;
0.7398;2.6995;9.4667;8;52.911;NaN;0 / 0;181015;2018-04-04 20:30:30:661;;;;;;
0.3041;2.8898;9.432;8;53.98;NaN;0 / 0;181516;2018-04-04 20:30:31:162;;;;;;
-0.2119;3.1304;9.2261;8;53.574;NaN;0 / 0;182016;2018-04-04 20:30:31:662;;;;;;
-0.1724;3.055;9.1866;8;46.56;NaN;0 / 0;182516;2018-04-04 20:30:32:162;;;;;;
0.395;2.8323;9.3494;8;48.304;NaN;0 / 0;183016;2018-04-04 20:30:32:662;;;;;;
0.838;2.7366;9.4906;8;46.157;NaN;0 / 0;183516;2018-04-04 20:30:33:162;;;;;;
0.7159;2.7761;9.4834;8;45.312;NaN;0 / 0;184016;2018-04-04 20:30:33:662;;;;;;
0.346;2.8024;9.3518;8;49.483;NaN;0 / 0;184516;2018-04-04 20:30:34:162;;;;;;
-0.0575;2.8802;9.2296;8;47.424;NaN;0 / 0;185016;2018-04-04 20:30:34:662;;;;;;
0.0814;3.0502;9.3529;8;42.948;NaN;0 / 0;185516;2018-04-04 20:30:35:162;;;;;;
0.3986;2.9125;9.4104;8;44.611;NaN;0 / 0;186016;2018-04-04 20:30:35:662;;;;;;
0.5997;2.733;9.4068;8;50.672;NaN;0 / 0;186516;2018-04-04 20:30:36:162;;;;;;
0.6297;2.6887;9.4822;8;51.948;NaN;0 / 0;187015;2018-04-04 20:30:36:661;;;;;;
0.34;2.812;9.4128;8;46.345;NaN;0 / 0;187516;2018-04-04 20:30:37:162;;;;;;
0.1951;2.8503;9.3242;8;45.2;NaN;0 / 0;188016;2018-04-04 20:30:37:662;;;;;;
0.1652;2.9149;9.3637;8;52.073;NaN;0 / 0;188516;2018-04-04 20:30:38:162;;;;;;
0.2131;2.8778;9.42;8;44.47;NaN;0 / 0;189016;2018-04-04 20:30:38:662;;;;;;
0.5064;2.7581;9.4834;8;45.421;NaN;0 / 0;189516;2018-04-04 20:30:39:162;;;;;;
0.7398;2.7521;9.5098;8;46.066;NaN;0 / 0;190016;2018-04-04 20:30:39:662;;;;;;
0.5483;2.7557;9.3506;8;44.151;NaN;0 / 0;190516;2018-04-04 20:30:40:162;;;;;;
0.1796;2.8252;9.3099;8;43.54;NaN;0 / 0;191016;2018-04-04 20:30:40:662;;;;;;
0.1281;2.9197;9.3015;8;43.032;NaN;0 / 0;191516;2018-04-04 20:30:41:162;;;;;;
0.3915;2.8683;9.341;8;43.565;NaN;0 / 0;192016;2018-04-04 20:30:41:662;;;;;;
0.583;2.745;9.4296;8;43.274;NaN;0 / 0;192516;2018-04-04 20:30:42:162;;;;;;
0.7075;2.6923;9.5014;8;43.08;NaN;0 / 0;193015;2018-04-04 20:30:42:661;;;;;;
0.6943;2.7007;9.4367;8;41.887;NaN;0 / 0;193516;2018-04-04 20:30:43:162;;;;;;
0.3148;2.8276;9.2392;8;41.732;NaN;0 / 0;194016;2018-04-04 20:30:43:662;;;;;;
0.0838;2.9042;9.3015;8;45.268;NaN;0 / 0;194516;2018-04-04 20:30:44:162;;;;;;
0.146;2.9341;9.4176;8;44.639;NaN;0 / 0;195016;2018-04-04 20:30:44:662;;;;;;
0.5555;2.7402;9.3625;8;45.826;NaN;0 / 0;195516;2018-04-04 20:30:45:162;;;;;;
0.7458;2.6456;9.4296;8;46.478;NaN;0 / 0;196016;2018-04-04 20:30:45:662;;;;;;
0.7542;2.6659;9.5469;8;46.192;NaN;0 / 0;196516;2018-04-04 20:30:46:162;;;;;;
0.6021;2.7665;9.5541;8;43.246;NaN;0 / 0;197016;2018-04-04 20:30:46:662;;;;;;
0.164;2.8742;9.2668;8;48.5;NaN;0 / 0;197516;2018-04-04 20:30:47:162;;;;;;
-0.097;2.9401;9.2356;8;48.928;NaN;0 / 0;198016;2018-04-04 20:30:47:662;;;;;;
0.0826;2.8814;9.3111;8;46.984;NaN;0 / 0;198516;2018-04-04 20:30:48:162;;;;;;
0.6776;2.6995;9.4619;8;46.792;NaN;0 / 0;199015;2018-04-04 20:30:48:661;;;;;;
1.0403;2.4936;9.517;8;46.043;NaN;0 / 0;199516;2018-04-04 20:30:49:162;;;;;;
0.8033;2.5438;9.4439;8;47.446;NaN;0 / 0;200016;2018-04-04 20:30:49:662;;;;;;
0.4142;2.6731;9.4164;8;47.374;NaN;0 / 0;200516;2018-04-04 20:30:50:162;;;;;;
0.0934;2.8647;9.347;8;46.829;NaN;0 / 0;201015;2018-04-04 20:30:50:661;;;;;;
0.2274;2.7653;9.2727;8;53.075;NaN;0 / 0;201516;2018-04-04 20:30:51:162;;;;;;
0.5962;2.6468;9.4882;8;55.484;NaN;0 / 0;202016;2018-04-04 20:30:51:662;;;;;;
1.0295;2.5606;9.4176;0;48.181;NaN;0 / 0;202516;2018-04-04 20:30:52:162;;;;;;
1.2725;2.5726;9.4978;3.1;48.602;NaN;0 / 0;203016;2018-04-04 20:30:52:662;;;;;;
0.8787;2.5343;9.2847;3.1;45.688;NaN;0 / 0;203516;2018-04-04 20:30:53:162;;;;;;
0.4453;2.6827;9.3134;0;44.858;NaN;0 / 0;204016;2018-04-04 20:30:53:662;;;;;;
-0.0263;3.3998;9.4523;3.1;43.815;NaN;0 / 0;204516;2018-04-04 20:30:54:162;;;;;;
0.5698;3.2394;9.3302;3.1;41.958;NaN;0 / 0;205016;2018-04-04 20:30:54:662;;;;;;
1.1372;3.1556;8.9388;3.1;40.658;NaN;0 / 0;205516;2018-04-04 20:30:55:162;;;;;;
1.0139;3.4357;9.3314;3.1;44.597;NaN;0 / 0;206016;2018-04-04 20:30:55:662;;;;;;
0.8607;3.1256;8.9986;3.1;45.612;NaN;0 / 0;206515;2018-04-04 20:30:56:161;;;;;;
0.3699;3.4919;9.0896;3.1;40.51;NaN;0 / 0;207016;2018-04-04 20:30:56:662;;;;;;
0.6225;3.0957;9.2895;3.1;40.179;NaN;0 / 0;207516;2018-04-04 20:30:57:162;;;;;;
0.7961;3.3627;9.0944;3.1;41.678;NaN;0 / 0;208016;2018-04-04 20:30:57:662;;;;;;
1.3707;2.6348;9.5301;3.1;41.608;NaN;0 / 0;208516;2018-04-04 20:30:58:162;;;;;;
1.7166;2.5067;9.2584;0;47.16;NaN;0 / 0;209016;2018-04-04 20:30:58:662;;;;;;
1.2031;2.6193;9.2117;0;48.825;NaN;0 / 0;209516;2018-04-04 20:30:59:162;;;;;;
-0.577;2.3715;6.7289;0;43.191;NaN;0 / 0;210015;2018-04-04 20:30:59:661;;;;;;
0.0539;0.7661;8.0553;0;64.656;NaN;0 / 0;210516;2018-04-04 20:31:00:162;;;;;;
1.166;-6.6391;8.6562;3.1;62.129;NaN;0 / 0;211016;2018-04-04 20:31:00:662;;;;;;
-0.5638;-0.018;10.337;3.1;65.397;NaN;0 / 0;211516;2018-04-04 20:31:01:162;;;;;;
-0.231;1.3396;10.0616;3.1;57.285;NaN;0 / 0;212016;2018-04-04 20:31:01:662;;;;;;
1.3156;0.6213;9.8521;3.1;53.642;NaN;0 / 0;212515;2018-04-04 20:31:02:161;;;;;;
-0.7326;1.3048;9.6558;3.1;48.184;NaN;0 / 0;213016;2018-04-04 20:31:02:662;;;;;;
-0.9242;1.2402;9.4068;3.1;34.164;NaN;0 / 0;213516;2018-04-04 20:31:03:162;;;;;;
-0.4764;1.3084;9.9659;3.1;37.717;NaN;0 / 0;214016;2018-04-04 20:31:03:662;;;;;;
0.0275;1.3443;9.9946;3.1;39.382;NaN;0 / 0;214516;2018-04-04 20:31:04:162;;;;;;
0.2813;1.2234;9.6965;3.1;42.404;NaN;0 / 0;215016;2018-04-04 20:31:04:662;;;;;;
-0.0371;1.3384;9.8031;3.1;35.498;NaN;0 / 0;215515;2018-04-04 20:31:05:161;;;;;;
-0.6608;1.4605;9.7492;3.1;33.831;NaN;0 / 0;216016;2018-04-04 20:31:05:662;;;;;;
-0.8092;1.4365;9.6139;3.1;36.176;NaN;0 / 0;216516;2018-04-04 20:31:06:162;;;;;;
-0.5866;1.3443;9.6989;3.1;34.669;NaN;0 / 0;217016;2018-04-04 20:31:06:662;;;;;;
-0.2035;1.3372;9.5756;3.1;34.175;NaN;0 / 0;217516;2018-04-04 20:31:07:162;;;;;;
0.091;1.4018;9.8641;3.1;33.232;NaN;0 / 0;218015;2018-04-04 20:31:07:661;;;;;;
0.1365;1.4389;10.082;3.1;31.962;NaN;0 / 0;218516;2018-04-04 20:31:08:162;;;;;;
-0.2765;1.3563;9.7348;3.1;32.831;NaN;0 / 0;219016;2018-04-04 20:31:08:662;;;;;;
-0.7757;1.3946;9.5828;3.1;32.986;NaN;0 / 0;219516;2018-04-04 20:31:09:162;;;;;;
-0.7578;1.4796;9.6355;3.1;32.84;NaN;0 / 0;220016;2018-04-04 20:31:09:662;;;;;;
-0.4585;1.415;9.6738;3.1;31.66;NaN;0 / 0;220515;2018-04-04 20:31:10:161;;;;;;
0.0383;1.3599;9.8162;3.1;31.63;NaN;0 / 0;221016;2018-04-04 20:31:10:662;;;;;;
0.1891;1.3611;9.9012;3.1;31.505;NaN;0 / 0;221516;2018-04-04 20:31:11:162;;;;;;
-0.1365;1.3982;9.7755;3.1;31.575;NaN;0 / 0;222016;2018-04-04 20:31:11:662;;;;;;
-0.5267;1.4198;9.6271;3.1;33.811;NaN;0 / 0;222516;2018-04-04 20:31:12:162;;;;;;
-0.8104;1.4018;9.6199;3.1;32.904;NaN;0 / 0;223015;2018-04-04 20:31:12:661;;;;;;
-0.5219;1.4569;9.7983;3.1;33.833;NaN;0 / 0;223516;2018-04-04 20:31:13:162;;;;;;
0.0275;1.4293;9.8809;3.1;33.149;NaN;0 / 0;224016;2018-04-04 20:31:13:662;;;;;;
0.0742;1.3719;9.8689;3.1;32.606;NaN;0 / 0;224516;2018-04-04 20:31:14:162;;;;;;
-0.2131;1.3671;9.7827;3.1;33.484;NaN;0 / 0;225015;2018-04-04 20:31:14:661;;;;;;
-0.3687;1.3934;9.5325;3.1;41.883;NaN;0 / 0;225516;2018-04-04 20:31:15:162;;;;;;
-0.583;1.4114;9.6079;3.1;36.352;NaN;0 / 0;226016;2018-04-04 20:31:15:662;;;;;;
-0.6201;1.4365;9.8438;3.1;40.592;NaN;0 / 0;226516;2018-04-04 20:31:16:162;;;;;;
-0.2538;1.4365;9.9347;3.1;34.07;NaN;0 / 0;227016;2018-04-04 20:31:16:662;;;;;;
0.0742;1.3743;9.8126;3.1;31.385;NaN;0 / 0;227516;2018-04-04 20:31:17:162;;;;;;
-0.1281;1.3431;9.6726;3.1;37.276;NaN;0 / 0;228016;2018-04-04 20:31:17:662;;;;;;
-0.4238;1.4102;9.6702;3.1;40.83;NaN;0 / 0;228516;2018-04-04 20:31:18:162;;;;;;
-0.6428;1.4281;9.5732;3.1;42.27;NaN;0 / 0;229016;2018-04-04 20:31:18:662;;;;;;
-0.5124;1.4126;9.7648;3.1;33.74;NaN;0 / 0;229516;2018-04-04 20:31:19:162;;;;;;
-0.1389;1.4114;9.985;3.1;37.945;NaN;0 / 0;230016;2018-04-04 20:31:19:662;;;;;;
0.0132;1.3862;9.8833;3.1;40.775;NaN;0 / 0;230516;2018-04-04 20:31:20:162;;;;;;
-0.1903;1.3348;9.5984;3.1;46.055;NaN;0 / 0;231016;2018-04-04 20:31:20:662;;;;;;
-0.5447;1.4114;9.5648;3.1;38.659;NaN;0 / 0;231516;2018-04-04 20:31:21:162;;;;;;
-0.6393;1.4856;9.7396;3.1;39.534;NaN;0 / 0;232016;2018-04-04 20:31:21:662;;;;;;
-0.4166;1.3946;9.8258;3.1;38.832;NaN;0 / 0;232515;2018-04-04 20:31:22:161;;;;;;
-0.0215;1.2701;9.7097;3.1;30.737;NaN;0 / 0;233016;2018-04-04 20:31:22:662;;;;;;
0.006;1.4078;9.8426;3.1;30.112;NaN;0 / 0;233516;2018-04-04 20:31:23:162;;;;;;
-0.2406;1.4533;9.9419;3.1;32.017;NaN;0 / 0;234016;2018-04-04 20:31:23:662;;;;;;
-0.4681;1.4533;9.7899;3.1;32.11;NaN;0 / 0;234516;2018-04-04 20:31:24:162;;;;;;
-0.6883;1.3886;9.5409;3.1;31.639;NaN;0 / 0;235016;2018-04-04 20:31:24:662;;;;;;
-0.577;1.3527;9.5577;3.1;30.893;NaN;0 / 0;235516;2018-04-04 20:31:25:162;;;;;;
-0.0563;1.3767;9.8414;3.1;31.688;NaN;0 / 0;236016;2018-04-04 20:31:25:662;;;;;;
0.2143;1.409;10.0341;3.1;41.473;NaN;0 / 0;236516;2018-04-04 20:31:26:162;;;;;;
0.0814;1.4114;9.9395;3.1;31.762;NaN;0 / 0;237016;2018-04-04 20:31:26:662;;;;;;
-0.5291;1.3791;9.5385;3.1;42.871;NaN;0 / 0;237516;2018-04-04 20:31:27:162;;;;;;
-0.8547;1.4114;9.5696;3.1;42.901;NaN;0 / 0;238016;2018-04-04 20:31:27:662;;;;;;
-0.7171;1.488;9.7169;3.1;31.9;NaN;0 / 0;238516;2018-04-04 20:31:28:162;;;;;;
-0.2945;1.3994;9.7396;3.1;42.93;NaN;0 / 0;239016;2018-04-04 20:31:28:662;;;;;;
0.2298;1.2881;9.9;3.1;42.001;NaN;0 / 0;239516;2018-04-04 20:31:29:162;;;;;;
0.1221;1.3731;9.8928;3.1;46.574;NaN;0 / 0;240016;2018-04-04 20:31:29:662;;;;;;
-0.328;1.4772;9.7193;3.1;40.678;NaN;0 / 0;240516;2018-04-04 20:31:30:162;;;;;;
-0.7003;1.4234;9.6091;3.1;40.322;NaN;0 / 0;241016;2018-04-04 20:31:30:662;;;;;;
-0.6991;1.3815;9.681;3.1;39.402;NaN;0 / 0;241516;2018-04-04 20:31:31:162;;;;;;
-0.3472;1.4892;9.9383;3.1;36.695;NaN;0 / 0;242016;2018-04-04 20:31:31:662;;;;;;
-0.0515;1.4066;9.8067;3.1;33.962;NaN;0 / 0;242516;2018-04-04 20:31:32:162;;;;;;
-0.0132;1.2617;9.5493;3.1;30.882;NaN;0 / 0;243015;2018-04-04 20:31:32:661;;;;;;
-0.2346;1.4557;9.815;3.1;30.636;NaN;0 / 0;243516;2018-04-04 20:31:33:162;;;;;;
-0.4884;1.4509;9.7719;3.1;37.619;NaN;0 / 0;244016;2018-04-04 20:31:33:662;;;;;;
-0.589;1.3539;9.6019;3.1;35.675;NaN;0 / 0;244516;2018-04-04 20:31:34:162;;;;;;
-0.4812;1.4234;9.8186;3.1;32.048;NaN;0 / 0;245016;2018-04-04 20:31:34:662;;;;;;
-0.2741;1.4533;9.8402;3.1;31.467;NaN;0 / 0;245515;2018-04-04 20:31:35:161;;;;;;
-0.2777;1.342;9.6606;3.1;35.243;NaN;0 / 0;246016;2018-04-04 20:31:35:662;;;;;;
-0.3172;1.3719;9.7528;3.1;36.953;NaN;0 / 0;246516;2018-04-04 20:31:36:162;;;;;;
-0.4046;1.4712;9.821;3.1;37.243;NaN;0 / 0;247016;2018-04-04 20:31:36:662;;;;;;
-0.4298;1.403;9.7013;3.1;35.94;NaN;0 / 0;247516;2018-04-04 20:31:37:162;;;;;;
-0.4178;1.3264;9.7707;3.1;33.664;NaN;0 / 0;248015;2018-04-04 20:31:37:661;;;;;;
-0.3448;1.3827;9.7959;3.1;30.973;NaN;0 / 0;248516;2018-04-04 20:31:38:162;;;;;;
-0.2969;1.4641;9.7851;3.1;31.315;NaN;0 / 0;249016;2018-04-04 20:31:38:662;;;;;;
-0.3196;1.3815;9.7695;3.1;32.356;NaN;0 / 0;249516;2018-04-04 20:31:39:162;;;;;;
-0.3376;1.3659;9.7037;3.1;30.488;NaN;0 / 0;250016;2018-04-04 20:31:39:662;;;;;;
-0.2861;1.3922;9.7432;3.1;31.139;NaN;0 / 0;250516;2018-04-04 20:31:40:162;;;;;;
-0.2789;1.3587;9.7648;3.1;32.826;NaN;0 / 0;251016;2018-04-04 20:31:40:662;;;;;;
-0.3148;1.391;9.7935;3.1;30.935;NaN;0 / 0;251516;2018-04-04 20:31:41:162;;;;;;
-0.3388;1.4617;9.8749;3.1;31.162;NaN;0 / 0;252016;2018-04-04 20:31:41:662;;;;;;
-0.3867;1.4485;9.8497;3.1;32.531;NaN;0 / 0;252516;2018-04-04 20:31:42:162;;;;;;
-0.4166;1.342;9.6403;3.1;31.316;NaN;0 / 0;253016;2018-04-04 20:31:42:662;;;;;;
-0.3735;1.3228;9.5529;3.1;31.237;NaN;0 / 0;253516;2018-04-04 20:31:43:162;;;;;;
-0.261;1.4174;9.7815;3.1;31.088;NaN;0 / 0;254016;2018-04-04 20:31:43:662;;;;;;
-0.1939;1.4617;9.9503;3.1;44.589;NaN;0 / 0;254516;2018-04-04 20:31:44:162;;;;;;
-0.2023;1.3874;9.8426;3.1;42.3;NaN;0 / 0;255016;2018-04-04 20:31:44:662;;;;;;
-0.3974;1.3108;9.6415;3.1;47.476;NaN;0 / 0;255516;2018-04-04 20:31:45:162;;;;;;
-0.4896;1.415;9.7109;3.1;39.61;NaN;0 / 0;256016;2018-04-04 20:31:45:662;;;;;;
-0.4429;1.4688;9.6762;3.1;39.714;NaN;0 / 0;256516;2018-04-04 20:31:46:162;;;;;;
-0.3962;1.3563;9.6426;3.1;31.132;NaN;0 / 0;257016;2018-04-04 20:31:46:662;;;;;;
-0.1508;1.3479;9.894;3.1;47.822;NaN;0 / 0;257516;2018-04-04 20:31:47:162;;;;;;
-0.0144;1.3803;9.8749;3.1;51.937;NaN;0 / 0;258016;2018-04-04 20:31:47:662;;;;;;
-0.1832;1.3647;9.7671;3.1;47.931;NaN;0 / 0;258516;2018-04-04 20:31:48:162;;;;;;
-0.5231;1.4425;9.8102;3.1;31.778;NaN;0 / 0;259016;2018-04-04 20:31:48:662;;;;;;
-0.7015;1.4341;9.7073;3.1;41.18;NaN;0 / 0;259516;2018-04-04 20:31:49:162;;;;;;
-0.4334;1.3563;9.6558;3.1;48.179;NaN;0 / 0;260015;2018-04-04 20:31:49:661;;;;;;
-0.1784;1.324;9.7612;3.1;48.819;NaN;0 / 0;260516;2018-04-04 20:31:50:162;;;;;;
-0.0551;1.391;9.8354;3.1;31.508;NaN;0 / 0;261016;2018-04-04 20:31:50:662;;;;;;
-0.2071;1.3886;9.7528;3.1;45.911;NaN;0 / 0;261516;2018-04-04 20:31:51:162;;;;;;
-0.4585;1.397;9.7264;3.1;48.074;NaN;0 / 0;262016;2018-04-04 20:31:51:662;;;;;;
-0.5626;1.3659;9.6798;3.1;44.755;NaN;0 / 0;262516;2018-04-04 20:31:52:162;;;;;;
-0.5064;1.3599;9.6822;3.1;32.853;NaN;0 / 0;263016;2018-04-04 20:31:52:662;;;;;;
-0.2646;1.4305;9.8593;3.1;41.566;NaN;0 / 0;263516;2018-04-04 20:31:53:162;;;;;;
-0.0072;1.3958;9.8988;3.1;43.069;NaN;0 / 0;264016;2018-04-04 20:31:53:662;;;;;;
-0.152;1.3575;9.7959;3.1;46.443;NaN;0 / 0;264516;2018-04-04 20:31:54:162;;;;;;
-0.5124;1.3503;9.5493;3.1;44.798;NaN;0 / 0;265015;2018-04-04 20:31:54:661;;;;;;
-0.5842;1.421;9.6869;3.1;41.571;NaN;0 / 0;265516;2018-04-04 20:31:55:162;;;;;;
-0.3316;1.421;9.918;3.1;32.595;NaN;0 / 0;266016;2018-04-04 20:31:55:662;;;;;;
-0.2155;1.3683;9.8246;3.1;31.705;NaN;0 / 0;266516;2018-04-04 20:31:56:162;;;;;;
-0.1664;1.33;9.6654;3.1;40.096;NaN;0 / 0;267016;2018-04-04 20:31:56:662;;;;;;
-0.2825;1.3886;9.7492;3.1;51.912;NaN;0 / 0;267515;2018-04-04 20:31:57:161;;;;;;
-0.516;1.4772;9.7504;3.1;45.137;NaN;0 / 0;268016;2018-04-04 20:31:57:662;;;;;;
-0.65;1.4162;9.6881;3.1;44.774;NaN;0 / 0;268516;2018-04-04 20:31:58:162;;;;;;
-0.4705;1.3443;9.6774;3.1;42.653;NaN;0 / 0;269016;2018-04-04 20:31:58:662;;;;;;
-0.1293;1.3324;9.7731;3.1;43.193;NaN;0 / 0;269516;2018-04-04 20:31:59:162;;;;;;
-0.0766;1.3838;9.924;3.1;31.939;NaN;0 / 0;270015;2018-04-04 20:31:59:661;;;;;;
-0.182;1.4928;9.9754;3.1;37.526;NaN;0 / 0;270516;2018-04-04 20:32:00:162;;;;;;
-0.4645;1.4425;9.7707;3.1;35.861;NaN;0 / 0;271016;2018-04-04 20:32:00:662;;;;;;
-0.7793;1.2641;9.4296;3.1;39.403;NaN;0 / 0;271516;2018-04-04 20:32:01:162;;;;;;
-0.6919;1.4018;9.56;3.1;37.586;NaN;0 / 0;272016;2018-04-04 20:32:01:662;;;;;;
-0.3256;1.488;9.9946;3.1;37.424;NaN;0 / 0;272516;2018-04-04 20:32:02:162;;;;;;
0.0886;1.3803;9.9503;3.1;31.239;NaN;0 / 0;273016;2018-04-04 20:32:02:662;;;;;;
0.0168;1.3024;9.651;3.1;33.069;NaN;0 / 0;273515;2018-04-04 20:32:03:161;;;;;;
-0.4705;1.4222;9.8126;3.1;40.321;NaN;0 / 0;274016;2018-04-04 20:32:03:662;;;;;;
-0.7003;1.4712;9.8462;3.1;42.154;NaN;0 / 0;274516;2018-04-04 20:32:04:162;;;;;;
-0.7877;1.4329;9.5517;3.1;46.901;NaN;0 / 0;275016;2018-04-04 20:32:04:662;;;;;;
-0.4429;1.3743;9.6355;3.1;42.63;NaN;0 / 0;275516;2018-04-04 20:32:05:162;;;;;;
-0.0072;1.3168;9.8773;3.1;47.269;NaN;0 / 0;276015;2018-04-04 20:32:05:661;;;;;;
0.0407;1.4006;9.9647;3.1;35.467;NaN;0 / 0;276516;2018-04-04 20:32:06:162;;;;;;
-0.1951;1.4748;9.9443;3.1;35.185;NaN;0 / 0;277016;2018-04-04 20:32:06:662;;;;;;
-0.7135;1.318;9.5553;3.1;39.531;NaN;0 / 0;277516;2018-04-04 20:32:07:162;;;;;;
-0.9828;1.409;9.4547;3.1;40.116;NaN;0 / 0;278016;2018-04-04 20:32:07:662;;;;;;
-0.7566;1.5048;9.7408;3.1;34.632;NaN;0 / 0;278516;2018-04-04 20:32:08:162;;;;;;
-0.2346;1.4305;9.9276;3.1;42.247;NaN;0 / 0;279015;2018-04-04 20:32:08:661;;;;;;
0.0587;1.2869;9.7576;3.1;44.65;NaN;0 / 0;279516;2018-04-04 20:32:09:162;;;;;;
-0.1628;1.3384;9.7935;3.1;37.409;NaN;0 / 0;280016;2018-04-04 20:32:09:662;;;;;;
-0.571;1.4569;9.7576;3.1;36.923;NaN;0 / 0;280516;2018-04-04 20:32:10:162;;;;;;
-0.8894;1.4964;9.5888;3.1;31.995;NaN;0 / 0;281016;2018-04-04 20:32:10:662;;;;;;
-0.7901;1.3886;9.6091;3.1;42.377;NaN;0 / 0;281515;2018-04-04 20:32:11:161;;;;;;
-0.2873;1.3431;9.8785;3.1;31.61;NaN;0 / 0;282016;2018-04-04 20:32:11:662;;;;;;
0.0479;1.391;9.9455;3.1;32.643;NaN;0 / 0;282516;2018-04-04 20:32:12:162;;;;;;
-0.0958;1.4377;9.7432;3.1;31.659;NaN;0 / 0;283016;2018-04-04 20:32:12:662;;;;;;
-0.6165;1.3898;9.681;3.1;35.534;NaN;0 / 0;283516;2018-04-04 20:32:13:162;;;;;;
-0.7985;1.3982;9.7157;3.1;34.41;NaN;0 / 0;284016;2018-04-04 20:32:13:662;;;;;;
-0.6369;1.4257;9.6666;3.1;31.201;NaN;0 / 0;284516;2018-04-04 20:32:14:162;;;;;;
-0.4058;1.4353;9.7767;3.1;32.287;NaN;0 / 0;285016;2018-04-04 20:32:14:662;;;;;;
-0.1712;1.3922;9.8509;3.1;31.304;NaN;0 / 0;285516;2018-04-04 20:32:15:162;;;;;;
-0.2454;1.342;9.6953;3.1;30.428;NaN;0 / 0;286016;2018-04-04 20:32:15:662;;;;;;
-0.492;1.3838;9.6307;3.1;30.649;NaN;0 / 0;286516;2018-04-04 20:32:16:162;;;;;;
-0.6369;1.4844;9.8653;3.1;31.292;NaN;0 / 0;287016;2018-04-04 20:32:16:662;;;;;;
-0.516;1.3862;9.8186;3.1;30.835;NaN;0 / 0;287516;2018-04-04 20:32:17:162;;;;;;
-0.3687;1.2989;9.6199;3.1;31.508;NaN;0 / 0;288016;2018-04-04 20:32:17:662;;;;;;
-0.2933;1.4162;9.7803;3.1;38.462;NaN;0 / 0;288516;2018-04-04 20:32:18:162;;;;;;
-0.2155;1.5012;9.9443;3.1;46.936;NaN;0 / 0;289016;2018-04-04 20:32:18:662;;;;;;
-0.3244;1.3384;9.7504;3.1;36.803;NaN;0 / 0;289516;2018-04-04 20:32:19:162;;;;;;
-0.5183;1.2713;9.5936;3.1;31.278;NaN;0 / 0;290016;2018-04-04 20:32:19:662;;;;;;
-0.5662;1.3898;9.7851;3.1;31.702;NaN;0 / 0;290516;2018-04-04 20:32:20:162;;;;;;
-0.4405;1.4724;9.8474;3.1;31.227;NaN;0 / 0;291016;2018-04-04 20:32:20:662;;;;;;
-0.3519;1.4461;9.7959;3.1;30.537;NaN;0 / 0;291515;2018-04-04 20:32:21:161;;;;;;
-0.3759;1.3551;9.6175;3.1;29.941;NaN;0 / 0;292016;2018-04-04 20:32:21:662;;;;;;
-0.4549;1.2953;9.5205;3.1;30.783;NaN;0 / 0;292516;2018-04-04 20:32:22:162;;;;;;
-0.5171;1.3898;9.7288;3.1;30.699;NaN;0 / 0;293016;2018-04-04 20:32:22:662;;;;;;
-0.4022;1.4688;9.918;3.1;34.274;NaN;0 / 0;293516;2018-04-04 20:32:23:162;;;;;;
-0.2801;1.3922;9.8629;3.1;57.159;NaN;0 / 0;294015;2018-04-04 20:32:23:661;;;;;;
-0.3208;1.3575;9.7504;3.1;30.8;NaN;0 / 0;294516;2018-04-04 20:32:24:162;;;;;;
-0.4645;1.3946;9.7959;3.1;30.768;NaN;0 / 0;295016;2018-04-04 20:32:24:662;;;;;;
-0.5327;1.4054;9.7001;3.1;30.77;NaN;0 / 0;295516;2018-04-04 20:32:25:162;;;;;;
-0.5339;1.3898;9.6031;3.1;35.309;NaN;0 / 0;296016;2018-04-04 20:32:25:662;;;;;;
-0.5052;1.4138;9.7911;3.1;30.757;NaN;0 / 0;296515;2018-04-04 20:32:26:161;;;;;;
-0.3472;1.3707;9.8904;3.1;31.346;NaN;0 / 0;297016;2018-04-04 20:32:26:662;;;;;;
-0.1628;1.3443;9.7767;3.1;31.945;NaN;0 / 0;297516;2018-04-04 20:32:27:162;;;;;;
-0.316;1.3815;9.7348;3.1;55.481;NaN;0 / 0;298016;2018-04-04 20:32:27:662;;;;;;
-0.6033;1.4138;9.6606;3.1;41.452;NaN;0 / 0;298515;2018-04-04 20:32:28:161;;;;;;
-0.7338;1.4234;9.6462;3.1;31.648;NaN;0 / 0;299016;2018-04-04 20:32:28:662;;;;;;
-0.5219;1.4006;9.8426;3.1;32.591;NaN;0 / 0;299516;2018-04-04 20:32:29:162;;;;;;
-0.2251;1.3408;9.8366;3.1;35.784;NaN;0 / 0;300015;2018-04-04 20:32:29:661;;;;;;
-0.1018;1.3731;9.7612;3.1;31.364;NaN;0 / 0;300516;2018-04-04 20:32:30:162;;;;;;
-0.2921;1.415;9.8677;3.1;30.893;NaN;0 / 0;301016;2018-04-04 20:32:30:662;;;;;;
-0.5854;1.403;9.7193;3.1;45.214;NaN;0 / 0;301516;2018-04-04 20:32:31:162;;;;;;
-0.6859;1.3874;9.6391;3.1;37.795;NaN;0 / 0;302016;2018-04-04 20:32:31:662;;;;;;
-0.6177;1.4222;9.7444;3.1;37.728;NaN;0 / 0;302516;2018-04-04 20:32:32:162;;;;;;
-0.3364;1.3922;9.7612;3.1;34.938;NaN;0 / 0;303016;2018-04-04 20:32:32:662;;;;;;
-0.0946;1.3012;9.6558;3.1;33.949;NaN;0 / 0;303516;2018-04-04 20:32:33:162;;;;;;
-0.1628;1.3791;9.8581;3.1;38.171;NaN;0 / 0;304016;2018-04-04 20:32:33:662;;;;;;
-0.431;1.4198;9.9192;3.1;40.314;NaN;0 / 0;304515;2018-04-04 20:32:34:161;;;;;;
-0.6895;1.3815;9.6582;3.1;34.183;NaN;0 / 0;305016;2018-04-04 20:32:34:662;;;;;;
-0.589;1.3036;9.6726;3.1;42.176;NaN;0 / 0;305516;2018-04-04 20:32:35:162;;;;;;
-0.3412;1.3527;9.7683;3.1;38.578;NaN;0 / 0;306016;2018-04-04 20:32:35:662;;;;;;
-0.1736;1.3922;9.7947;3.1;33.623;NaN;0 / 0;306516;2018-04-04 20:32:36:162;;;;;;
-0.1353;1.3647;9.918;3.1;36.26;NaN;0 / 0;307016;2018-04-04 20:32:36:662;;;;;;
-0.328;1.3228;9.7252;3.1;39.219;NaN;0 / 0;307516;2018-04-04 20:32:37:162;;;;;;
-0.5926;1.3779;9.7133;3.1;34.494;NaN;0 / 0;308016;2018-04-04 20:32:37:662;;;;;;
-0.68;1.415;9.7372;3.1;60.88;NaN;0 / 0;308516;2018-04-04 20:32:38:162;;;;;;
-0.5483;1.385;9.6594;3.1;31.606;NaN;0 / 0;309016;2018-04-04 20:32:38:662;;;;;;
-0.1879;1.4102;9.8952;3.1;34.644;NaN;0 / 0;309515;2018-04-04 20:32:39:161;;;;;;
-0.0084;1.3527;9.8402;3.1;32.351;NaN;0 / 0;310016;2018-04-04 20:32:39:662;;;;;;
-0.2167;1.2917;9.578;3.1;32.174;NaN;0 / 0;310516;2018-04-04 20:32:40:162;;;;;;
-0.5399;1.3683;9.6558;3.1;31.751;NaN;0 / 0;311015;2018-04-04 20:32:40:661;;;;;;
-0.4992;1.3874;9.7731;3.1;33.384;NaN;0 / 0;311516;2018-04-04 20:32:41:162;;;;;;
-0.3843;1.3731;9.7145;3.1;30.762;NaN;0 / 0;312016;2018-04-04 20:32:41:662;;;;;;
-0.2454;1.4281;9.9407;3.1;30.779;NaN;0 / 0;312516;2018-04-04 20:32:42:162;;;;;;
-0.2047;1.3743;9.9311;3.1;30.892;NaN;0 / 0;313016;2018-04-04 20:32:42:662;;;;;;
-0.3208;1.2641;9.5205;3.1;30.596;NaN;0 / 0;313516;2018-04-04 20:32:43:162;;;;;;
-0.565;1.3503;9.5517;3.1;34.778;NaN;0 / 0;314016;2018-04-04 20:32:43:662;;;;;;
-0.6333;1.4557;9.7683;3.1;34.588;NaN;0 / 0;314515;2018-04-04 20:32:44:161;;;;;;
-0.3723;1.4293;9.8893;3.1;43.715;NaN;0 / 0;315016;2018-04-04 20:32:44:662;;;;;;
-0.0742;1.2893;9.9419;3.1;49.163;NaN;0 / 0;315516;2018-04-04 20:32:45:162;;;;;;
-0.2777;1.342;9.6714;3.1;46.513;NaN;0 / 0;316016;2018-04-04 20:32:45:662;;;;;;
-0.5614;1.409;9.6869;3.1;33.664;NaN;0 / 0;316516;2018-04-04 20:32:46:162;;;;;;
-0.7937;1.3994;9.7241;3.1;39.649;NaN;0 / 0;317015;2018-04-04 20:32:46:661;;;;;;
-0.6321;1.3767;9.754;3.1;45.313;NaN;0 / 0;317516;2018-04-04 20:32:47:162;;;;;;
-0.3256;1.3503;9.7971;3.1;38.993;NaN;0 / 0;318016;2018-04-04 20:32:47:662;;;;;;
-0.182;1.3779;9.8186;3.1;38.473;NaN;0 / 0;318516;2018-04-04 20:32:48:162;;;;;;
-0.1915;1.421;9.9419;3.1;37.897;NaN;0 / 0;319016;2018-04-04 20:32:48:662;;;;;;
-0.5004;1.3815;9.821;3.1;43.821;NaN;0 / 0;319516;2018-04-04 20:32:49:162;;;;;;
-0.8344;1.312;9.4044;3.1;52.534;NaN;0 / 0;320016;2018-04-04 20:32:49:662;;;;;;
-0.929;1.3743;9.4882;3.1;54.758;NaN;0 / 0;320515;2018-04-04 20:32:50:161;;;;;;
-0.6165;1.4964;9.93;3.1;36.772;NaN;0 / 0;321016;2018-04-04 20:32:50:662;;;;;;
-0.1832;1.4078;9.9012;3.1;37.851;NaN;0 / 0;321516;2018-04-04 20:32:51:162;;;;;;
-0.0215;1.245;9.681;3.1;37.977;NaN;0 / 0;322016;2018-04-04 20:32:51:662;;;;;;
-0.2382;1.3144;9.7456;3.1;38.293;NaN;0 / 0;322516;2018-04-04 20:32:52:162;;;;;;
-0.65;1.4473;9.9024;3.1;46.688;NaN;0 / 0;323015;2018-04-04 20:32:52:661;;;;;;
-0.6225;1.3779;9.5948;3.1;34.691;NaN;0 / 0;323516;2018-04-04 20:32:53:162;;;;;;
-0.4082;1.2965;9.5433;3.1;30.429;NaN;0 / 0;324016;2018-04-04 20:32:53:662;;;;;;
-0.1269;1.3503;9.8557;3.1;30.659;NaN;0 / 0;324516;2018-04-04 20:32:54:162;;;;;;
0.1856;1.3803;9.9898;3.1;41.142;NaN;0 / 0;325016;2018-04-04 20:32:54:662;;;;;;
-0.012;1.2486;9.6426;3.1;32.3;NaN;0 / 0;325516;2018-04-04 20:32:55:162;;;;;;
-0.4729;1.2965;9.6271;3.1;32.435;NaN;0 / 0;326016;2018-04-04 20:32:55:662;;;;;;
-0.5926;1.4425;9.8497;3.1;36.383;NaN;0 / 0;326515;2018-04-04 20:32:56:161;;;;;;
-0.5028;1.3994;9.7827;3.1;58.959;NaN;0 / 0;327016;2018-04-04 20:32:56:662;;;;;;
-0.2777;1.2809;9.6905;3.1;46.464;NaN;0 / 0;327516;2018-04-04 20:32:57:162;;;;;;
-0.0371;1.3264;9.8007;3.1;43.719;NaN;0 / 0;328016;2018-04-04 20:32:57:662;;;;;;
-0.0515;1.3635;9.8569;3.1;31.057;NaN;0 / 0;328516;2018-04-04 20:32:58:162;;;;;;
-0.2777;1.3551;9.7671;3.1;31.612;NaN;0 / 0;329016;2018-04-04 20:32:58:662;;;;;;
-0.5052;1.3252;9.7229;3.1;31.237;NaN;0 / 0;329516;2018-04-04 20:32:59:162;;;;;;
-0.5746;1.403;9.8114;3.1;37.282;NaN;0 / 0;330015;2018-04-04 20:32:59:661;;;;;;
-0.492;1.4114;9.7815;3.1;36.089;NaN;0 / 0;330516;2018-04-04 20:33:00:162;;;;;;
-0.2083;1.3587;9.6941;3.1;47.675;NaN;0 / 0;331016;2018-04-04 20:33:00:662;;;;;;
-0.1233;1.2833;9.7288;3.1;32.078;NaN;0 / 0;331516;2018-04-04 20:33:01:162;;;;;;
-0.255;1.3276;9.7157;3.1;30.931;NaN;0 / 0;332016;2018-04-04 20:33:01:662;;;;;;
-0.3687;1.4138;9.7612;3.1;31.378;NaN;0 / 0;332516;2018-04-04 20:33:02:162;;;;;;
-0.4932;1.4018;9.8677;3.1;33.22;NaN;0 / 0;333016;2018-04-04 20:33:02:662;;;;;;
-0.4788;1.3384;9.7372;3.1;32.648;NaN;0 / 0;333515;2018-04-04 20:33:03:161;;;;;;
-0.3208;1.336;9.6343;3.1;32.267;NaN;0 / 0;334016;2018-04-04 20:33:03:662;;;;;;
-0.176;1.3551;9.6953;3.1;30.993;NaN;0 / 0;334516;2018-04-04 20:33:04:162;;;;;;
-0.0072;1.3551;9.8378;3.1;31.037;NaN;0 / 0;335015;2018-04-04 20:33:04:661;;;;;;
-0.1748;1.3228;9.8605;3.1;31.551;NaN;0 / 0;335515;2018-04-04 20:33:05:161;;;;;;
-0.4561;1.3372;9.7408;3.1;38.447;NaN;0 / 0;336016;2018-04-04 20:33:05:662;;;;;;
-0.4453;1.3671;9.73;3.1;37.166;NaN;0 / 0;336516;2018-04-04 20:33:06:162;;;;;;
-0.3819;1.3862;9.8402;3.1;40.977;NaN;0 / 0;337016;2018-04-04 20:33:06:662;;;;;;
-0.3077;1.3898;9.6606;3.1;33.796;NaN;0 / 0;337516;2018-04-04 20:33:07:162;;;;;;
-0.1257;1.2653;9.7049;3.1;45.114;NaN;0 / 0;338015;2018-04-04 20:33:07:661;;;;;;
-0.0898;1.2737;9.8378;3.1;40.53;NaN;0 / 0;338516;2018-04-04 20:33:08:162;;;;;;
-0.2777;1.3862;9.9084;3.1;32.322;NaN;0 / 0;339016;2018-04-04 20:33:08:662;;;;;;
-0.4405;1.3958;9.6929;3.1;30.068;NaN;0 / 0;339516;2018-04-04 20:33:09:162;;;;;;
-0.5076;1.3264;9.6666;3.1;32.126;NaN;0 / 0;340016;2018-04-04 20:33:09:662;;;;;;
-0.413;1.3515;9.7468;3.1;55.925;NaN;0 / 0;340516;2018-04-04 20:33:10:162;;;;;;
-0.1915;1.3491;9.675;3.1;31.555;NaN;0 / 0;341016;2018-04-04 20:33:10:662;;;;;;
-0.1101;1.3384;9.8031;3.1;30.866;NaN;0 / 0;341516;2018-04-04 20:33:11:162;;;;;;
-0.152;1.3695;9.9934;3.1;32.122;NaN;0 / 0;342016;2018-04-04 20:33:11:662;;;;;;
-0.3508;1.3587;9.8126;3.1;29.859;NaN;0 / 0;342516;2018-04-04 20:33:12:162;;;;;;
-0.6584;1.318;9.5122;3.1;35.866;NaN;0 / 0;343016;2018-04-04 20:33:12:662;;;;;;
-0.5746;1.385;9.6702;3.1;44.859;NaN;0 / 0;343516;2018-04-04 20:33:13:162;;;;;;
-0.2574;1.3994;9.8581;3.1;49.229;NaN;0 / 0;344016;2018-04-04 20:33:13:662;;;;;;
-0.0898;1.3755;9.8629;3.1;44.435;NaN;0 / 0;344516;2018-04-04 20:33:14:162;;;;;;
-0.1796;1.3072;9.8617;3.1;42.842;NaN;0 / 0;345015;2018-04-04 20:33:14:661;;;;;;
-0.5088;1.3539;9.7169;3.1;49.557;NaN;0 / 0;345516;2018-04-04 20:33:15:162;;;;;;
-0.7063;1.4006;9.5002;3.1;44.853;NaN;0 / 0;346016;2018-04-04 20:33:15:662;;;;;;
-0.6488;1.4138;9.7731;3.1;44.093;NaN;0 / 0;346516;2018-04-04 20:33:16:162;;;;;;
-0.4166;1.3982;9.8617;3.1;31.941;NaN;0 / 0;347016;2018-04-04 20:33:16:662;;;;;;
-0.0215;1.3443;9.8725;3.1;31.649;NaN;0 / 0;347515;2018-04-04 20:33:17:161;;;;;;
0.0551;1.3036;9.8725;3.1;36.173;NaN;0 / 0;348016;2018-04-04 20:33:17:662;;;;;;
-0.2717;1.3587;9.7013;3.1;37.721;NaN;0 / 0;348516;2018-04-04 20:33:18:162;;;;;;
-0.6381;1.3647;9.5361;3.1;48.593;NaN;0 / 0;349016;2018-04-04 20:33:18:662;;;;;;
-0.6776;1.3563;9.6403;3.1;51.087;NaN;0 / 0;349516;2018-04-04 20:33:19:162;;;;;;
-0.4082;1.3336;9.9695;3.1;49.966;NaN;0 / 0;350016;2018-04-04 20:33:19:662;;;;;;
-0.0539;1.3695;9.9659;3.1;52.72;NaN;0 / 0;350516;2018-04-04 20:33:20:162;;;;;;
0.0766;1.3312;9.6881;3.1;54.475;NaN;0 / 0;351016;2018-04-04 20:33:20:662;;;;;;
-0.1125;1.3431;9.6199;3.1;53.718;NaN;0 / 0;351515;2018-04-04 20:33:21:161;;;;;;
-0.3208;1.3575;9.5277;3.1;35.303;NaN;0 / 0;352016;2018-04-04 20:33:21:662;;;;;;
-0.31;1.3443;9.5936;3.1;46.6;NaN;0 / 0;352516;2018-04-04 20:33:22:162;;;;;;
-0.0132;1.5155;10.0796;3.1;45.978;NaN;0 / 0;353016;2018-04-04 20:33:22:662;;;;;;
-0.1604;1.3024;9.7444;3.1;46.568;NaN;0 / 0;353516;2018-04-04 20:33:23:162;;;;;;
-0.2909;1.3156;9.7456;3.1;46.845;NaN;0 / 0;354016;2018-04-04 20:33:23:662;;;;;;
-0.3615;1.3455;9.7588;3.1;42.854;NaN;0 / 0;354516;2018-04-04 20:33:24:162;;;;;;
-0.3783;1.2294;9.5828;3.1;38.643;NaN;0 / 0;355016;2018-04-04 20:33:24:662;;;;;;
-0.5746;1.3216;9.7432;3.1;30.786;NaN;0 / 0;355516;2018-04-04 20:33:25:162;;;;;;
-0.4609;1.3647;9.9168;3.1;30.553;NaN;0 / 0;356016;2018-04-04 20:33:25:662;;;;;;
-0.3388;1.2809;9.7372;3.1;33.048;NaN;0 / 0;356516;2018-04-04 20:33:26:162;;;;;;
-0.3017;1.3024;9.6666;3.1;40.448;NaN;0 / 0;357016;2018-04-04 20:33:26:662;;;;;;
-0.3496;1.4521;9.9323;3.1;40.345;NaN;0 / 0;357515;2018-04-04 20:33:27:161;;;;;;
-0.3819;1.4473;9.8126;3.1;32.903;NaN;0 / 0;358016;2018-04-04 20:33:27:662;;;;;;
-0.4812;1.3647;9.5409;3.1;31.308;NaN;0 / 0;358516;2018-04-04 20:33:28:162;;;;;;
-0.4968;1.3767;9.5756;3.1;36.135;NaN;0 / 0;359016;2018-04-04 20:33:28:662;;;;;;
-0.267;1.4425;9.9419;3.1;40.144;NaN;0 / 0;359516;2018-04-04 20:33:29:162;;;;;;
-0.1927;1.3934;9.7875;3.1;35.466;NaN;0 / 0;360015;2018-04-04 20:33:29:661;;;;;;
-0.3603;1.3575;9.6462;3.1;30.382;NaN;0 / 0;360516;2018-04-04 20:33:30:162;;;;;;
-0.4633;1.3958;9.7528;3.1;43.804;NaN;0 / 0;361016;2018-04-04 20:33:30:662;;;;;;
-0.3891;1.4629;9.8581;3.1;40.917;NaN;0 / 0;361516;2018-04-04 20:33:31:162;;;;;;
-0.3591;1.4521;9.8234;3.1;35.324;NaN;0 / 0;362016;2018-04-04 20:33:31:662;;;;;;
-0.4393;1.3431;9.6319;3.1;32.884;NaN;0 / 0;362516;2018-04-04 20:33:32:162;;;;;;
-0.4597;1.3611;9.6989;3.1;29.474;NaN;0 / 0;363015;2018-04-04 20:33:32:661;;;;;;
-0.3519;1.4353;9.7791;3.1;49.489;NaN;0 / 0;363516;2018-04-04 20:33:33:162;;;;;;
-0.3364;1.4389;9.8067;3.1;33.153;NaN;0 / 0;364016;2018-04-04 20:33:33:662;;;;;;
-0.3543;1.4186;9.8677;3.1;41.51;NaN;0 / 0;364516;2018-04-04 20:33:34:162;;;;;;
-0.3795;1.4269;9.8294;3.1;29.241;NaN;0 / 0;365016;2018-04-04 20:33:34:662;;;;;;
-0.4896;1.3994;9.5876;3.1;29.171;NaN;0 / 0;365515;2018-04-04 20:33:35:161;;;;;;
-0.4968;1.3791;9.6331;3.1;34.735;NaN;0 / 0;366016;2018-04-04 20:33:35:662;;;;;;
-0.4417;1.4114;9.7731;3.1;29.913;NaN;0 / 0;366516;2018-04-04 20:33:36:162;;;;;;
-0.3508;1.4246;9.821;3.1;30.21;NaN;0 / 0;367016;2018-04-04 20:33:36:662;;;;;;
-0.2406;1.4222;9.8067;3.1;45.136;NaN;0 / 0;367516;2018-04-04 20:33:37:162;;;;;;
-0.2394;1.3838;9.8521;3.1;45.57;NaN;0 / 0;368015;2018-04-04 20:33:37:661;;;;;;
-0.4513;1.4401;9.7995;3.1;32.535;NaN;0 / 0;368516;2018-04-04 20:33:38:162;;;;;;
-0.674;1.4641;9.6007;3.1;35.107;NaN;0 / 0;369015;2018-04-04 20:33:38:661;;;;;;
-0.5064;1.342;9.566;3.1;39.609;NaN;0 / 0;369516;2018-04-04 20:33:39:162;;;;;;
-0.3017;1.3659;9.754;3.1;36.155;NaN;0 / 0;370016;2018-04-04 20:33:39:662;;;;;;
-0.1975;1.4664;9.8426;3.1;40.04;NaN;0 / 0;370516;2018-04-04 20:33:40:162;;;;;;
-0.1999;1.4293;9.9228;3.1;33.151;NaN;0 / 0;371016;2018-04-04 20:33:40:662;;;;;;
-0.401;1.3874;9.736;3.1;45.235;NaN;0 / 0;371516;2018-04-04 20:33:41:162;;;;;;
-0.6141;1.4269;9.6271;3.1;33.73;NaN;0 / 0;372016;2018-04-04 20:33:41:662;;;;;;
-0.6093;1.4054;9.669;3.1;39.419;NaN;0 / 0;372516;2018-04-04 20:33:42:162;;;;;;
-0.4477;1.4389;9.748;3.1;32.867;NaN;0 / 0;373016;2018-04-04 20:33:42:662;;;;;;
-0.1544;1.4126;9.7923;3.1;34.676;NaN;0 / 0;373516;2018-04-04 20:33:43:162;;;;;;
0.012;1.391;9.973;3.1;35.924;NaN;0 / 0;374016;2018-04-04 20:33:43:662;;;;;;
-0.1137;1.421;10.0078;3.1;33.966;NaN;0 / 0;374516;2018-04-04 20:33:44:162;;;;;;
-0.5447;1.3922;9.6379;3.1;41.185;NaN;0 / 0;375016;2018-04-04 20:33:44:662;;;;;;
-0.8452;1.391;9.3613;3.1;40.75;NaN;0 / 0;375516;2018-04-04 20:33:45:162;;;;;;
-0.6871;1.4533;9.6786;3.1;43.031;NaN;0 / 0;376015;2018-04-04 20:33:45:661;;;;;;
-0.3089;1.4078;9.9084;3.1;48.626;NaN;0 / 0;376516;2018-04-04 20:33:46:162;;;;;;
0.0443;1.3515;9.8904;3.1;34.604;NaN;0 / 0;377016;2018-04-04 20:33:46:662;;;;;;
-0.097;1.3815;9.7659;3.1;30.749;NaN;0 / 0;377516;2018-04-04 20:33:47:162;;;;;;
-0.4298;1.3671;9.681;3.1;33.293;NaN;0 / 0;378016;2018-04-04 20:33:47:662;;;;;;
-0.7195;1.3862;9.6738;3.1;32.857;NaN;0 / 0;378515;2018-04-04 20:33:48:161;;;;;;
-0.7757;1.4461;9.6163;3.1;44.559;NaN;0 / 0;379016;2018-04-04 20:33:48:662;;;;;;
-0.3962;1.4353;9.8186;3.1;35.225;NaN;0 / 0;379516;2018-04-04 20:33:49:162;;;;;;
-0.0347;1.3539;9.979;3.1;31.028;NaN;0 / 0;380016;2018-04-04 20:33:49:662;;;;;;
-0.0215;1.3096;9.7899;3.1;41.391;NaN;0 / 0;380516;2018-04-04 20:33:50:162;;;;;;
-0.3244;1.3838;9.4858;3.1;34.723;NaN;0 / 0;381016;2018-04-04 20:33:50:662;;;;;;
-0.5543;1.4808;9.8976;3.1;30.899;NaN;0 / 0;381516;2018-04-04 20:33:51:162;;;;;;
-0.6141;1.4377;9.8282;3.1;32.052;NaN;0 / 0;382016;2018-04-04 20:33:51:662;;;;;;
-0.4872;1.3815;9.5732;3.1;34.599;NaN;0 / 0;382516;2018-04-04 20:33:52:162;;;;;;
-0.2873;1.3898;9.6546;3.1;31.678;NaN;0 / 0;383016;2018-04-04 20:33:52:662;;;;;;
-0.0515;1.3946;9.9347;3.1;33.431;NaN;0 / 0;383516;2018-04-04 20:33:53:162;;;;;;
-0.1676;1.397;9.9012;3.1;33.004;NaN;0 / 0;384016;2018-04-04 20:33:53:662;;;;;;
-0.4118;1.4102;9.7252;3.1;31.4;NaN;0 / 0;384516;2018-04-04 20:33:54:162;;;;;;
-0.6297;1.421;9.6426;3.1;31.058;NaN;0 / 0;385016;2018-04-04 20:33:54:662;;;;;;
-0.5638;1.4054;9.645;3.1;40.932;NaN;0 / 0;385515;2018-04-04 20:33:55:161;;;;;;
-0.3268;1.4102;9.6929;3.1;34.941;NaN;0 / 0;386016;2018-04-04 20:33:55:662;;;;;;
-0.1604;1.4078;9.7851;3.1;34.117;NaN;0 / 0;386516;2018-04-04 20:33:56:162;;;;;;
-0.1149;1.3599;9.8749;3.1;33.781;NaN;0 / 0;387015;2018-04-04 20:33:56:661;;;;;;
-0.2286;1.3922;9.8366;3.1;35.152;NaN;0 / 0;387516;2018-04-04 20:33:57:162;;;;;;
-0.4752;1.4545;9.7695;3.1;39.087;NaN;0 / 0;388016;2018-04-04 20:33:57:662;;;;;;
-0.6752;1.4581;9.675;3.1;36.617;NaN;0 / 0;388516;2018-04-04 20:33:58:162;;;;;;
-0.5854;1.4485;9.6714;3.1;36.195;NaN;0 / 0;389016;2018-04-04 20:33:58:662;;;;;;
-0.2562;1.3408;9.6295;3.1;31.988;NaN;0 / 0;389516;2018-04-04 20:33:59:162;;;;;;
-0.1077;1.391;9.8055;3.1;42.587;NaN;0 / 0;390016;2018-04-04 20:33:59:662;;;;;;
-0.1604;1.4557;10.0078;3.1;41.257;NaN;0 / 0;390515;2018-04-04 20:34:00:161;;;;;;
-0.3938;1.4162;9.8007;3.1;39.223;NaN;0 / 0;391016;2018-04-04 20:34:00:662;;;;;;
-0.6704;1.403;9.5517;3.1;45.361;NaN;0 / 0;391516;2018-04-04 20:34:01:162;;;;;;
-0.7159;1.4186;9.6474;3.1;37.324;NaN;0 / 0;392016;2018-04-04 20:34:01:662;;;;;;
-0.4657;1.3958;9.8617;3.1;33.096;NaN;0 / 0;392516;2018-04-04 20:34:02:162;;;;;;
-0.1676;1.3982;9.9144;3.1;37.46;NaN;0 / 0;393015;2018-04-04 20:34:02:661;;;;;;
-0.1496;1.3563;9.8414;3.1;36.833;NaN;0 / 0;393516;2018-04-04 20:34:03:162;;;;;;
-0.3699;1.3276;9.5984;3.1;30.288;NaN;0 / 0;394016;2018-04-04 20:34:03:662;;;;;;
-0.5507;1.4162;9.6103;3.1;31.737;NaN;0 / 0;394516;2018-04-04 20:34:04:162;;;;;;
-0.662;1.4868;9.8198;3.1;30.92;NaN;0 / 0;395016;2018-04-04 20:34:04:662;;;;;;
-0.5351;1.3827;9.6738;3.1;33.306;NaN;0 / 0;395516;2018-04-04 20:34:05:162;;;;;;
-0.2897;1.2977;9.6151;3.1;31.864;NaN;0 / 0;396016;2018-04-04 20:34:05:662;;;;;;
-0.1748;1.3803;9.8114;3.1;38.533;NaN;0 / 0;396516;2018-04-04 20:34:06:162;;;;;;
-0.1891;1.4497;9.9419;3.1;35.038;NaN;0 / 0;397016;2018-04-04 20:34:06:662;;;;;;
-0.4094;1.3719;9.7683;3.1;32.774;NaN;0 / 0;397516;2018-04-04 20:34:07:162;;;;;;
-0.6237;1.3443;9.566;3.1;31.928;NaN;0 / 0;398016;2018-04-04 20:34:07:662;;;;;;
-0.6393;1.4257;9.6319;3.1;43.043;NaN;0 / 0;398516;2018-04-04 20:34:08:162;;;;;;
-0.4202;1.4868;9.9012;3.1;40.34;NaN;0 / 0;399016;2018-04-04 20:34:08:662;;;;;;
-0.1556;1.3479;9.8533;3.1;34.022;NaN;0 / 0;399516;2018-04-04 20:34:09:162;;;;;;
-0.1568;1.3204;9.7061;3.1;35.191;NaN;0 / 0;400016;2018-04-04 20:34:09:662;;;;;;
-0.3424;1.4054;9.7217;3.1;54.367;NaN;0 / 0;400516;2018-04-04 20:34:10:162;;;;;;
-0.5614;1.4449;9.7121;3.1;40.589;NaN;0 / 0;401016;2018-04-04 20:34:10:662;;;;;;
-0.5722;1.4497;9.7348;3.1;43.28;NaN;0 / 0;401516;2018-04-04 20:34:11:162;;;;;;
-0.4214;1.4365;9.8545;3.1;33.854;NaN;0 / 0;402016;2018-04-04 20:34:11:662;;;;;;
-0.3017;1.4174;9.8043;3.1;42.697;NaN;0 / 0;402516;2018-04-04 20:34:12:162;;;;;;
-0.2286;1.3815;9.6977;3.1;49.195;NaN;0 / 0;403015;2018-04-04 20:34:12:661;;;;;;
-0.2885;1.4293;9.7707;3.1;56.713;NaN;0 / 0;403516;2018-04-04 20:34:13:162;;;;;;
-0.4429;1.4509;9.7959;3.1;30.988;NaN;0 / 0;404016;2018-04-04 20:34:13:662;;;;;;
-0.5938;1.4688;9.6582;3.1;31.01;NaN;0 / 0;404516;2018-04-04 20:34:14:162;;;;;;
-0.6177;1.4186;9.663;3.1;30.215;NaN;0 / 0;405016;2018-04-04 20:34:14:662;;;;;;
-0.3986;1.4006;9.8019;3.1;43.033;NaN;0 / 0;405516;2018-04-04 20:34:15:162;;;;;;
-0.3412;1.4868;9.8258;3.1;52.792;NaN;0 / 0;406016;2018-04-04 20:34:15:662;;;;;;
-0.3268;1.4305;9.7863;3.1;40.356;NaN;0 / 0;406515;2018-04-04 20:34:16:161;;;;;;
-0.3005;1.3755;9.7863;3.1;37.662;NaN;0 / 0;407016;2018-04-04 20:34:16:662;;;;;;
-0.5076;1.4509;9.7456;3.1;34.058;NaN;0 / 0;407516;2018-04-04 20:34:17:162;;;;;;
-0.6225;1.47;9.7061;3.1;30.671;NaN;0 / 0;408016;2018-04-04 20:34:17:662;;;;;;
-0.5734;1.4138;9.7935;3.1;29.513;NaN;0 / 0;408516;2018-04-04 20:34:18:162;;;;;;
-0.4154;1.4293;9.8186;3.1;31.031;NaN;0 / 0;409016;2018-04-04 20:34:18:662;;;;;;
-0.2251;1.3611;9.6438;3.1;45.853;NaN;0 / 0;409516;2018-04-04 20:34:19:162;;;;;;
-0.2921;1.3611;9.6367;3.1;41.809;NaN;0 / 0;410016;2018-04-04 20:34:19:662;;;;;;
-0.4645;1.4581;9.8246;3.1;45.965;NaN;0 / 0;410516;2018-04-04 20:34:20:162;;;;;;
-0.5339;1.482;9.8617;3.1;43.309;NaN;0 / 0;411016;2018-04-04 20:34:20:662;;;;;;
-0.4369;1.4114;9.7109;3.1;50.292;NaN;0 / 0;411516;2018-04-04 20:34:21:162;;;;;;
-0.4525;1.3994;9.6103;3.1;51.84;NaN;0 / 0;412016;2018-04-04 20:34:21:662;;;;;;
-0.4238;1.4186;9.6929;3.1;56.467;NaN;0 / 0;412516;2018-04-04 20:34:22:162;;;;;;
-0.2969;1.4293;9.8773;3.1;44.976;NaN;0 / 0;413016;2018-04-04 20:34:22:662;;;;;;
-0.3268;1.4126;9.7911;3.1;45.82;NaN;0 / 0;413516;2018-04-04 20:34:23:162;;;;;;
-0.4657;1.3719;9.7564;3.1;45.661;NaN;0 / 0;414016;2018-04-04 20:34:23:662;;;;;;
-0.5195;1.4473;9.7492;3.1;42.919;NaN;0 / 0;414516;2018-04-04 20:34:24:162;;;;;;
-0.5351;1.488;9.7456;3.1;36.41;NaN;0 / 0;415016;2018-04-04 20:34:24:662;;;;;;
-0.419;1.415;9.8126;3.1;39.795;NaN;0 / 0;415516;2018-04-04 20:34:25:162;;;;;;
-0.2574;1.3551;9.7121;3.1;41.076;NaN;0 / 0;416016;2018-04-04 20:34:25:662;;;;;;
-0.3388;1.3719;9.6139;3.1;42.947;NaN;0 / 0;416516;2018-04-04 20:34:26:162;;;;;;
-0.4585;1.4844;9.8007;3.1;41.156;NaN;0 / 0;417016;2018-04-04 20:34:26:662;;;;;;
-0.4094;1.4533;9.8641;3.1;47.955;NaN;0 / 0;417515;2018-04-04 20:34:27:161;;;;;;
-0.4393;1.3767;9.7049;3.1;38.274;NaN;0 / 0;418016;2018-04-04 20:34:27:662;;;;;;
-0.4681;1.4246;9.6833;3.1;34.892;NaN;0 / 0;418516;2018-04-04 20:34:28:162;;;;;;
-0.401;1.4341;9.7995;3.1;40.348;NaN;0 / 0;419016;2018-04-04 20:34:28:662;;;;;;
-0.4429;1.4114;9.7133;3.1;44.905;NaN;0 / 0;419516;2018-04-04 20:34:29:162;;;;;;
-0.4334;1.3874;9.6438;3.1;43.696;NaN;0 / 0;420015;2018-04-04 20:34:29:661;;;;;;
-0.346;1.3994;9.7695;3.1;49.233;NaN;0 / 0;420516;2018-04-04 20:34:30:162;;;;;;
-0.3938;1.4772;9.9647;3.1;51.054;NaN;0 / 0;421016;2018-04-04 20:34:30:662;;;;;;
-0.4561;1.4293;9.7875;3.1;40.594;NaN;0 / 0;421516;2018-04-04 20:34:31:162;;;;;;
-0.5614;1.3503;9.5541;3.1;37.538;NaN;0 / 0;422016;2018-04-04 20:34:31:662;;;;;;
-0.5447;1.4257;9.6415;3.1;38.041;NaN;0 / 0;422516;2018-04-04 20:34:32:162;;;;;;
-0.3579;1.5083;9.8689;3.1;50.123;NaN;0 / 0;423016;2018-04-04 20:34:32:662;;;;;;
-0.3364;1.3743;9.7791;3.1;43.323;NaN;0 / 0;423516;2018-04-04 20:34:33:162;;;;;;
-0.401;1.324;9.6163;3.1;47.258;NaN;0 / 0;424016;2018-04-04 20:34:33:662;;;;;;
-0.4238;1.5036;9.7803;3.1;52.144;NaN;0 / 0;424516;2018-04-04 20:34:34:162;;;;;;
-0.4142;1.5071;9.9228;3.1;46.929;NaN;0 / 0;425016;2018-04-04 20:34:34:662;;;;;;
-0.4908;1.3467;9.6391;3.1;45.195;NaN;0 / 0;425516;2018-04-04 20:34:35:162;;;;;;
-0.5471;1.4054;9.5768;3.1;40.659;NaN;0 / 0;426016;2018-04-04 20:34:35:662;;;;;;
-0.4836;1.5012;9.821;3.1;42.139;NaN;0 / 0;426515;2018-04-04 20:34:36:161;;;;;;
-0.3603;1.4509;9.8629;3.1;39.421;NaN;0 / 0;427016;2018-04-04 20:34:36:662;;;;;;
-0.3136;1.3431;9.7252;3.1;44.475;NaN;0 / 0;427516;2018-04-04 20:34:37:162;;;;;;
-0.316;1.3779;9.8019;3.1;44.92;NaN;0 / 0;428016;2018-04-04 20:34:37:662;;;;;;
-0.4082;1.4772;9.8737;3.1;41.221;NaN;0 / 0;428516;2018-04-04 20:34:38:162;;;;;;
-0.5483;1.4832;9.7205;3.1;45.76;NaN;0 / 0;429015;2018-04-04 20:34:38:661;;;;;;
-0.5914;1.3707;9.5948;3.1;41.728;NaN;0 / 0;429516;2018-04-04 20:34:39:162;;;;;;
-0.346;1.3731;9.8162;3.1;40.436;NaN;0 / 0;430016;2018-04-04 20:34:39:662;;;;;;
-0.1844;1.4126;9.8043;3.1;41.049;NaN;0 / 0;430516;2018-04-04 20:34:40:162;;;;;;
-0.1891;1.3994;9.748;3.1;42.559;NaN;0 / 0;431016;2018-04-04 20:34:40:662;;;;;;
-0.2358;1.4234;9.8043;3.1;38.789;NaN;0 / 0;431516;2018-04-04 20:34:41:162;;;;;;
-0.4166;1.3946;9.6953;3.1;38.259;NaN;0 / 0;432016;2018-04-04 20:34:41:662;;;;;;
-0.5435;1.4126;9.6115;3.1;41.894;NaN;0 / 0;432515;2018-04-04 20:34:42:161;;;;;;
-0.4776;1.409;9.7181;3.1;39.192;NaN;0 / 0;433016;2018-04-04 20:34:42:662;;;;;;
-0.1975;1.3563;9.7959;3.1;44.949;NaN;0 / 0;433516;2018-04-04 20:34:43:162;;;;;;
-0.0347;1.3623;9.7899;3.1;45.651;NaN;0 / 0;434016;2018-04-04 20:34:43:662;;;;;;
-0.1484;1.403;9.8497;3.1;36.915;NaN;0 / 0;434516;2018-04-04 20:34:44:162;;;;;;
-0.4118;1.4066;9.839;3.1;41.63;NaN;0 / 0;435016;2018-04-04 20:34:44:662;;;;;;
-0.5997;1.415;9.7935;3.1;47.439;NaN;0 / 0;435516;2018-04-04 20:34:45:162;;;;;;
-0.5459;1.4114;9.596;3.1;43.707;NaN;0 / 0;436016;2018-04-04 20:34:45:662;;;;;;
-0.3136;1.3767;9.6905;3.1;35.862;NaN;0 / 0;436516;2018-04-04 20:34:46:162;;;;;;
-0.0587;1.3922;9.9587;3.1;37.556;NaN;0 / 0;437016;2018-04-04 20:34:46:662;;;;;;
-0.1077;1.3671;9.7384;3.1;44.959;NaN;0 / 0;437516;2018-04-04 20:34:47:162;;;;;;
-0.3687;1.3455;9.5002;3.1;42.565;NaN;0 / 0;438016;2018-04-04 20:34:47:662;;;;;;
-0.5004;1.4485;9.7324;3.1;33.522;NaN;0 / 0;438515;2018-04-04 20:34:48:161;;;;;;
-0.4334;1.4174;9.8677;3.1;42.988;NaN;0 / 0;439016;2018-04-04 20:34:48:662;;;;;;
-0.3041;1.3348;9.6355;3.1;39.966;NaN;0 / 0;439516;2018-04-04 20:34:49:162;;;;;;
-0.2658;1.3946;9.7576;3.1;37.363;NaN;0 / 0;440016;2018-04-04 20:34:49:662;;;;;;
-0.0658;1.397;9.9814;3.1;41.076;NaN;0 / 0;440516;2018-04-04 20:34:50:162;;;;;;
-0.1185;1.2677;9.7025;3.1;49.324;NaN;0 / 0;441015;2018-04-04 20:34:50:661;;;;;;
-0.4848;1.3659;9.6558;3.1;41.343;NaN;0 / 0;441516;2018-04-04 20:34:51:162;;;;;;
-0.5076;1.5024;9.7468;3.1;55.703;NaN;0 / 0;442016;2018-04-04 20:34:51:662;;;;;;
-0.3316;1.4054;9.7588;3.1;51.112;NaN;0 / 0;442516;2018-04-04 20:34:52:162;;;;;;
-0.1724;1.3348;9.6869;3.1;42.056;NaN;0 / 0;443016;2018-04-04 20:34:52:662;;;;;;
-0.1233;1.3515;9.7456;3.1;41.62;NaN;0 / 0;443516;2018-04-04 20:34:53:162;;;;;;
-0.1413;1.4341;9.8761;3.1;34.843;NaN;0 / 0;444015;2018-04-04 20:34:53:661;;;;;;
-0.3543;1.4581;9.839;3.1;38.44;NaN;0 / 0;444516;2018-04-04 20:34:54:162;;;;;;
-0.5722;1.409;9.6965;3.1;38.863;NaN;0 / 0;445016;2018-04-04 20:34:54:662;;;;;;
-0.4872;1.4018;9.6486;3.1;35.671;NaN;0 / 0;445516;2018-04-04 20:34:55:162;;;;;;
-0.3555;1.4389;9.8162;3.1;48.439;NaN;0 / 0;446016;2018-04-04 20:34:55:662;;;;;;
-0.34;1.4545;9.9216;3.1;40.55;NaN;0 / 0;446515;2018-04-04 20:34:56:161;;;;;;
-0.3735;1.4078;9.7576;3.1;54.589;NaN;0 / 0;447016;2018-04-04 20:34:56:662;;;;;;
-0.5231;1.4222;9.6426;3.1;57.622;NaN;0 / 0;447516;2018-04-04 20:34:57:162;;;;;;
-0.5171;1.4844;9.7959;3.1;45.69;NaN;0 / 0;448016;2018-04-04 20:34:57:662;;;;;;
-0.4202;1.4222;9.7695;3.1;44.71;NaN;0 / 0;448516;2018-04-04 20:34:58:162;;;;;;
-0.3496;1.4126;9.663;3.1;46.263;NaN;0 / 0;449016;2018-04-04 20:34:58:662;;;;;;
-0.431;1.4545;9.8007;3.1;35.285;NaN;0 / 0;449516;2018-04-04 20:34:59:162;;;;;;
-0.4381;1.4581;9.8402;3.1;39.757;NaN;0 / 0;450016;2018-04-04 20:34:59:662;;;;;;
-0.4202;1.4437;9.7576;3.1;34.395;NaN;0 / 0;450516;2018-04-04 20:35:00:162;;;;;;
-0.4645;1.4305;9.6989;3.1;36.938;NaN;0 / 0;451016;2018-04-04 20:35:00:662;;;;;;
-0.3938;1.4305;9.7097;3.1;53.144;NaN;0 / 0;451516;2018-04-04 20:35:01:162;;;;;;
-0.3687;1.4461;9.675;3.1;35.745;NaN;0 / 0;452016;2018-04-04 20:35:01:662;;;;;;
-0.498;1.4509;9.7444;3.1;37.138;NaN;0 / 0;452516;2018-04-04 20:35:02:162;;;;;;
-0.5195;1.4557;9.6845;3.1;35.828;NaN;0 / 0;453016;2018-04-04 20:35:02:662;;;;;;
-0.3519;1.4281;9.7348;3.1;33.969;NaN;0 / 0;453516;2018-04-04 20:35:03:162;;;;;;
-0.3172;1.4353;9.9168;3.1;34.103;NaN;0 / 0;454016;2018-04-04 20:35:03:662;;;;;;
-0.3974;1.4341;9.8605;3.1;34.327;NaN;0 / 0;454516;2018-04-04 20:35:04:162;;;;;;
-0.4932;1.3862;9.5816;3.1;32.449;NaN;0 / 0;455016;2018-04-04 20:35:04:662;;;;;;
-0.5136;1.4293;9.6127;3.1;38.812;NaN;0 / 0;455516;2018-04-04 20:35:05:162;;;;;;
-0.4764;1.488;9.8689;3.1;37.719;NaN;0 / 0;456016;2018-04-04 20:35:05:662;;;;;;
-0.3807;1.4461;9.8916;3.1;49.205;NaN;0 / 0;456516;2018-04-04 20:35:06:162;;;;;;
-0.2837;1.3707;9.7875;3.1;32.857;NaN;0 / 0;457016;2018-04-04 20:35:06:662;;;;;;
-0.2897;1.3767;9.651;3.1;42.202;NaN;0 / 0;457516;2018-04-04 20:35:07:162;;;;;;
-0.4238;1.5036;9.827;3.1;32.308;NaN;0 / 0;458016;2018-04-04 20:35:07:662;;;;;;
-0.5375;1.5048;9.9036;3.1;32.622;NaN;0 / 0;458516;2018-04-04 20:35:08:162;;;;;;
-0.5734;1.3731;9.584;3.1;42.469;NaN;0 / 0;459016;2018-04-04 20:35:08:662;;;;;;
-0.4705;1.3827;9.6103;3.1;42.206;NaN;0 / 0;459516;2018-04-04 20:35:09:162;;;;;;
-0.2382;1.5227;9.9695;3.1;34.129;NaN;0 / 0;460015;2018-04-04 20:35:09:661;;;;;;
-0.1437;1.4569;9.8952;3.1;43.849;NaN;0 / 0;460516;2018-04-04 20:35:10:162;;;;;;
-0.3208;1.3599;9.7061;3.1;37.76;NaN;0 / 0;461016;2018-04-04 20:35:10:662;;;;;;
-0.6105;1.4461;9.6929;3.1;32.166;NaN;0 / 0;461516;2018-04-04 20:35:11:162;;;;;;
-0.6201;1.4856;9.6558;3.1;44.819;NaN;0 / 0;462016;2018-04-04 20:35:11:662;;;;;;
-0.486;1.4521;9.7803;3.1;34.554;NaN;0 / 0;462516;2018-04-04 20:35:12:162;;;;;;
-0.3292;1.4138;9.7624;3.1;38.369;NaN;0 / 0;463016;2018-04-04 20:35:12:662;;;;;;
-0.1939;1.3539;9.5912;3.1;32.975;NaN;0 / 0;463516;2018-04-04 20:35:13:162;;;;;;
-0.1736;1.4317;9.8067;3.1;32.664;NaN;0 / 0;464016;2018-04-04 20:35:13:662;;;;;;
-0.3591;1.5083;10.0257;3.1;49.394;NaN;0 / 0;464515;2018-04-04 20:35:14:161;;;;;;
-0.5902;1.4581;9.6893;3.1;44.049;NaN;0 / 0;465016;2018-04-04 20:35:14:662;;;;;;
-0.6333;1.3479;9.3685;3.1;34.505;NaN;0 / 0;465516;2018-04-04 20:35:15:162;;;;;;
-0.4645;1.4952;9.8581;3.1;44.186;NaN;0 / 0;466016;2018-04-04 20:35:15:662;;;;;;
-0.2418;1.5179;10.0245;3.1;40.172;NaN;0 / 0;466516;2018-04-04 20:35:16:162;;;;;;
-0.0563;1.3455;9.7564;3.1;36.074;NaN;0 / 0;467015;2018-04-04 20:35:16:661;;;;;;
-0.2849;1.3898;9.7516;3.1;42.043;NaN;0 / 0;467516;2018-04-04 20:35:17:162;;;;;;
-0.6333;1.5107;9.8007;3.1;38.261;NaN;0 / 0;468016;2018-04-04 20:35:17:662;;;;;;
-0.6919;1.4485;9.6091;3.1;33.501;NaN;0 / 0;468516;2018-04-04 20:35:18:162;;;;;;
-0.5279;1.3922;9.5577;3.1;32.146;NaN;0 / 0;469016;2018-04-04 20:35:18:662;;;;;;
-0.2083;1.4545;9.9407;3.1;32.547;NaN;0 / 0;469515;2018-04-04 20:35:19:161;;;;;;
-0.079;1.4473;9.9048;3.1;31.569;NaN;0 / 0;470016;2018-04-04 20:35:19:662;;;;;;
-0.152;1.3827;9.7145;3.1;32.833;NaN;0 / 0;470516;2018-04-04 20:35:20:162;;;;;;
-0.4262;1.3791;9.6403;3.1;43.244;NaN;0 / 0;471016;2018-04-04 20:35:20:662;;;;;;
-0.5674;1.4712;9.7743;3.1;32.914;NaN;0 / 0;471516;2018-04-04 20:35:21:162;;;;;;
-0.419;1.4688;9.7755;3.1;32.839;NaN;0 / 0;472016;2018-04-04 20:35:21:662;;;;;;
-0.2813;1.3827;9.6738;3.1;33.726;NaN;0 / 0;472516;2018-04-04 20:35:22:162;;;;;;
-0.1233;1.3144;9.6223;3.1;37.992;NaN;0 / 0;473015;2018-04-04 20:35:22:661;;;;;;
-0.1053;1.4198;9.8246;3.1;39.056;NaN;0 / 0;473516;2018-04-04 20:35:23:162;;;;;;
-0.3531;1.5143;9.93;3.1;48.266;NaN;0 / 0;474016;2018-04-04 20:35:23:662;;;;;;
-0.5507;1.4461;9.7193;3.1;35.912;NaN;0 / 0;474516;2018-04-04 20:35:24:162;;;;;;
-0.5686;1.3264;9.4691;3.1;33.318;NaN;0 / 0;475016;2018-04-04 20:35:24:662;;;;;;
-0.3675;1.4497;9.6965;3.1;39.423;NaN;0 / 0;475516;2018-04-04 20:35:25:162;;;;;;
-0.1041;1.5048;9.9766;3.1;32.241;NaN;0 / 0;476016;2018-04-04 20:35:25:662;;;;;;
-0.0012;1.3886;9.9659;3.1;41.039;NaN;0 / 0;476515;2018-04-04 20:35:26:161;;;;;;
-0.182;1.3288;9.7648;3.1;35.679;NaN;0 / 0;477016;2018-04-04 20:35:26:662;;;;;;
-0.559;1.4449;9.6486;3.1;37.849;NaN;0 / 0;477516;2018-04-04 20:35:27:162;;;;;;
-0.6812;1.4712;9.669;3.1;39.864;NaN;0 / 0;478016;2018-04-04 20:35:27:662;;;;;;
-0.498;1.4401;9.7683;3.1;34.541;NaN;0 / 0;478516;2018-04-04 20:35:28:162;;;;;;
-0.1437;1.3731;9.7324;3.1;30.918;NaN;0 / 0;479015;2018-04-04 20:35:28:661;;;;;;
0.0168;1.3551;9.7025;3.1;31.22;NaN;0 / 0;479516;2018-04-04 20:35:29:162;;;;;;
-0.2586;1.4449;9.8701;3.1;33.666;NaN;0 / 0;480016;2018-04-04 20:35:29:662;;;;;;
-0.4848;1.4581;9.7336;3.1;37.382;NaN;0 / 0;480516;2018-04-04 20:35:30:162;;;;;;
-0.5866;1.4569;9.6929;3.1;29.831;NaN;0 / 0;481015;2018-04-04 20:35:30:661;;;;;;
-0.492;1.4401;9.7887;3.1;36.043;NaN;0 / 0;481516;2018-04-04 20:35:31:162;;;;;;
-0.3687;1.3563;9.5373;3.1;33.196;NaN;0 / 0;482016;2018-04-04 20:35:31:662;;;;;;
-0.2346;1.3671;9.5924;3.1;31.006;NaN;0 / 0;482516;2018-04-04 20:35:32:162;;;;;;
-0.0287;1.4664;10.0149;3.1;30.622;NaN;0 / 0;483016;2018-04-04 20:35:32:662;;;;;;
-0.2298;1.4509;9.9407;3.1;31.637;NaN;0 / 0;483515;2018-04-04 20:35:33:161;;;;;;
-0.5974;1.3779;9.5385;3.1;31.356;NaN;0 / 0;484016;2018-04-04 20:35:33:662;;;;;;
-0.6692;1.3886;9.517;3.1;31.789;NaN;0 / 0;484516;2018-04-04 20:35:34:162;;;;;;
-0.4345;1.4401;9.6486;3.1;31.221;NaN;0 / 0;485016;2018-04-04 20:35:34:662;;;;;;
-0.1257;1.47;9.985;3.1;32.941;NaN;0 / 0;485516;2018-04-04 20:35:35:162;;;;;;
-0.0982;1.4126;9.9276;3.1;39.35;NaN;0 / 0;486015;2018-04-04 20:35:35:661;;;;;;
-0.2346;1.3683;9.6534;3.1;31.105;NaN;0 / 0;486516;2018-04-04 20:35:36:162;;;;;;
-0.4393;1.4269;9.7731;3.1;29.933;NaN;0 / 0;487015;2018-04-04 20:35:36:661;;;;;;
-0.5854;1.476;9.8174;3.1;41.124;NaN;0 / 0;487516;2018-04-04 20:35:37:162;;;;;;
-0.5878;1.3922;9.4882;3.1;43.176;NaN;0 / 0;488016;2018-04-04 20:35:37:662;;;;;;
-0.4669;1.3922;9.6426;3.1;42.768;NaN;0 / 0;488516;2018-04-04 20:35:38:162;;;;;;
-0.2466;1.5036;9.9754;3.1;36.348;NaN;0 / 0;489016;2018-04-04 20:35:38:662;;;;;;
-0.2119;1.4066;9.7755;3.1;32.892;NaN;0 / 0;489516;2018-04-04 20:35:39:162;;;;;;
-0.3244;1.3479;9.6259;3.1;33.484;NaN;0 / 0;490016;2018-04-04 20:35:39:662;;;;;;
-0.5124;1.4413;9.7145;3.1;48.227;NaN;0 / 0;490516;2018-04-04 20:35:40:162;;;;;;
-0.6177;1.506;9.675;3.1;32.485;NaN;0 / 0;491015;2018-04-04 20:35:40:661;;;;;;
-0.4142;1.4257;9.6881;3.1;30.434;NaN;0 / 0;491516;2018-04-04 20:35:41:162;;;;;;
-0.2825;1.3827;9.7911;3.1;32.12;NaN;0 / 0;492016;2018-04-04 20:35:41:662;;;;;;
-0.255;1.4293;9.8174;3.1;43.257;NaN;0 / 0;492516;2018-04-04 20:35:42:162;;;;;;
-0.2454;1.4712;9.8916;3.1;41.91;NaN;0 / 0;493016;2018-04-04 20:35:42:662;;;;;;
-0.3412;1.4234;9.7276;3.1;41.13;NaN;0 / 0;493516;2018-04-04 20:35:43:162;;;;;;
-0.5363;1.3491;9.5852;3.1;38.56;NaN;0 / 0;494016;2018-04-04 20:35:43:662;;;;;;
-0.5938;1.4257;9.6211;3.1;34.772;NaN;0 / 0;494515;2018-04-04 20:35:44:161;;;;;;
-0.3388;1.4892;9.8438;3.1;33.154;NaN;0 / 0;495016;2018-04-04 20:35:44:662;;;;;;
-0.176;1.3934;9.7947;3.1;40.943;NaN;0 / 0;495516;2018-04-04 20:35:45:162;;;;;;
-0.1832;1.3348;9.7683;3.1;39.069;NaN;0 / 0;496016;2018-04-04 20:35:45:662;;;;;;
-0.2215;1.3958;9.7983;3.1;43.989;NaN;0 / 0;496516;2018-04-04 20:35:46:162;;;;;;
-0.3771;1.5143;9.8928;3.1;46.602;NaN;0 / 0;497015;2018-04-04 20:35:46:661;;;;;;
-0.577;1.4593;9.7145;3.1;30.251;NaN;0 / 0;497516;2018-04-04 20:35:47:162;;;;;;
-0.5567;1.3791;9.5996;3.1;30.689;NaN;0 / 0;498016;2018-04-04 20:35:47:662;;;;;;
-0.3795;1.4042;9.7492;3.1;41.554;NaN;0 / 0;498516;2018-04-04 20:35:48:162;;;;;;
-0.1149;1.4114;9.8198;3.1;43.953;NaN;0 / 0;499016;2018-04-04 20:35:48:662;;;;;;
-0.1915;1.4042;9.6786;3.1;40.153;NaN;0 / 0;499515;2018-04-04 20:35:49:161;;;;;;
-0.4465;1.4557;9.7205;3.1;30.523;NaN;0 / 0;500016;2018-04-04 20:35:49:662;;;;;;
-0.5076;1.4365;9.8354;3.1;33.61;NaN;0 / 0;500516;2018-04-04 20:35:50:162;;;;;;
-0.4884;1.421;9.7085;3.1;30.272;NaN;0 / 0;501016;2018-04-04 20:35:50:662;;;;;;
-0.3903;1.4246;9.5996;3.1;34.279;NaN;0 / 0;501516;2018-04-04 20:35:51:162;;;;;;
-0.2634;1.4389;9.7875;3.1;36.838;NaN;0 / 0;502015;2018-04-04 20:35:51:661;;;;;;
-0.2179;1.4461;9.8821;3.1;43.502;NaN;0 / 0;502516;2018-04-04 20:35:52:162;;;;;;
-0.2526;1.4078;9.8677;3.1;31.27;NaN;0 / 0;503016;2018-04-04 20:35:52:662;;;;;;
-0.407;1.4126;9.7348;3.1;45.968;NaN;0 / 0;503516;2018-04-04 20:35:53:162;;;;;;
-0.5195;1.4676;9.6738;3.1;51.076;NaN;0 / 0;504016;2018-04-04 20:35:53:662;;;;;;
-0.4334;1.476;9.7839;3.1;40.191;NaN;0 / 0;504516;2018-04-04 20:35:54:162;;;;;;
-0.3196;1.4018;9.6798;3.1;34.16;NaN;0 / 0;505016;2018-04-04 20:35:54:662;;;;;;
-0.2765;1.4066;9.6403;3.1;43.221;NaN;0 / 0;505515;2018-04-04 20:35:55:161;;;;;;
-0.2035;1.4629;9.9168;3.1;48.762;NaN;0 / 0;506016;2018-04-04 20:35:55:662;;;;;;
-0.3148;1.4521;9.8761;3.1;44.014;NaN;0 / 0;506516;2018-04-04 20:35:56:162;;;;;;
-0.4274;1.4198;9.6175;3.1;44.654;NaN;0 / 0;507016;2018-04-04 20:35:56:662;;;;;;
-0.4178;1.4293;9.7097;3.1;46.368;NaN;0 / 0;507516;2018-04-04 20:35:57:162;;;;;;
-0.3603;1.4545;9.8258;3.1;37.695;NaN;0 / 0;508015;2018-04-04 20:35:57:661;;;;;;
-0.3124;1.4389;9.748;3.1;37.847;NaN;0 / 0;508516;2018-04-04 20:35:58:162;;;;;;
-0.2993;1.4281;9.7001;3.1;45.004;NaN;0 / 0;509016;2018-04-04 20:35:58:662;;;;;;
-0.2693;1.4389;9.8198;3.1;44.721;NaN;0 / 0;509516;2018-04-04 20:35:59:162;;;;;;
-0.2897;1.397;9.76;3.1;53.821;NaN;0 / 0;510016;2018-04-04 20:35:59:662;;;;;;
-0.346;1.3886;9.6426;3.1;53.694;NaN;0 / 0;510516;2018-04-04 20:36:00:162;;;;;;
-0.3256;1.4976;9.8509;3.1;42.672;NaN;0 / 0;511016;2018-04-04 20:36:00:662;;;;;;
-0.3112;1.4868;9.9204;3.1;45.778;NaN;0 / 0;511516;2018-04-04 20:36:01:162;;;;;;
-0.4202;1.3491;9.5385;3.1;43.218;NaN;0 / 0;512016;2018-04-04 20:36:01:662;;;;;;
-0.431;1.3934;9.5481;3.1;42.873;NaN;0 / 0;512516;2018-04-04 20:36:02:162;;;;;;
-0.3089;1.567;9.9958;3.1;33.209;NaN;0 / 0;513016;2018-04-04 20:36:02:662;;;;;;
-0.2514;1.4413;9.8007;3.1;48.53;NaN;0 / 0;513516;2018-04-04 20:36:03:162;;;;;;
-0.3508;1.3252;9.5589;3.1;42.719;NaN;0 / 0;514016;2018-04-04 20:36:03:662;;;;;;
-0.3807;1.4042;9.6881;3.1;32.648;NaN;0 / 0;514516;2018-04-04 20:36:04:162;;;;;;
-0.4106;1.4976;9.7767;3.1;32.489;NaN;0 / 0;515016;2018-04-04 20:36:04:662;;;;;;
-0.3639;1.4222;9.76;3.1;29.767;NaN;0 / 0;515516;2018-04-04 20:36:05:162;;;;;;
-0.2921;1.4042;9.7468;3.1;30.617;NaN;0 / 0;516016;2018-04-04 20:36:05:662;;;;;;
-0.255;1.4257;9.7827;3.1;44.393;NaN;0 / 0;516516;2018-04-04 20:36:06:162;;;;;;
-0.2777;1.4629;9.8497;3.1;43.422;NaN;0 / 0;517016;2018-04-04 20:36:06:662;;;;;;
-0.486;1.4162;9.73;3.1;35.3;NaN;0 / 0;517516;2018-04-04 20:36:07:162;;;;;;
-0.4585;1.3767;9.59;3.1;38.539;NaN;0 / 0;518016;2018-04-04 20:36:07:662;;;;;;
-0.3687;1.4389;9.8102;3.1;41.272;NaN;0 / 0;518516;2018-04-04 20:36:08:162;;;;;;
-0.2406;1.4724;9.894;3.1;47.671;NaN;0 / 0;519016;2018-04-04 20:36:08:662;;;;;;
-0.2598;1.3791;9.6271;3.1;35.138;NaN;0 / 0;519516;2018-04-04 20:36:09:162;;;;;;
-0.34;1.3743;9.7229;3.1;40.631;NaN;0 / 0;520016;2018-04-04 20:36:09:662;;;;;;
-0.4058;1.4629;9.8737;3.1;44.181;NaN;0 / 0;520516;2018-04-04 20:36:10:162;;;;;;
-0.4717;1.4808;9.7025;3.1;38.51;NaN;0 / 0;521016;2018-04-04 20:36:10:662;;;;;;
-0.4202;1.3767;9.6271;3.1;39.524;NaN;0 / 0;521515;2018-04-04 20:36:11:161;;;;;;
-0.3436;1.4018;9.7396;3.1;44.738;NaN;0 / 0;522016;2018-04-04 20:36:11:662;;;;;;
-0.2286;1.4389;9.833;3.1;39.139;NaN;0 / 0;522516;2018-04-04 20:36:12:162;;;;;;
-0.103;1.4281;9.9563;3.1;37.762;NaN;0 / 0;523016;2018-04-04 20:36:12:662;;;;;;
-0.231;1.3467;9.7109;3.1;49.731;NaN;0 / 0;523516;2018-04-04 20:36:13:162;;;;;;
-0.5926;1.4269;9.5181;3.1;38.913;NaN;0 / 0;524016;2018-04-04 20:36:13:662;;;;;;
-0.7242;1.5203;9.6953;3.1;44.647;NaN;0 / 0;524516;2018-04-04 20:36:14:162;;;;;;
-0.4381;1.4545;9.9024;3.1;38.217;NaN;0 / 0;525016;2018-04-04 20:36:14:662;;;;;;
-0.0946;1.342;9.7863;3.1;43.078;NaN;0 / 0;525516;2018-04-04 20:36:15:162;;;;;;
-0.018;1.3683;9.7217;3.1;42.867;NaN;0 / 0;526016;2018-04-04 20:36:15:662;;;;;;
-0.1999;1.4126;9.7767;3.1;50.009;NaN;0 / 0;526516;2018-04-04 20:36:16:162;;;;;;
-0.5387;1.4533;9.7504;3.1;41.005;NaN;0 / 0;527016;2018-04-04 20:36:16:662;;;;;;
-0.6931;1.4653;9.6367;3.1;33.657;NaN;0 / 0;527515;2018-04-04 20:36:17:161;;;;;;
-0.3962;1.3743;9.6833;3.1;39.142;NaN;0 / 0;528016;2018-04-04 20:36:17:662;;;;;;
-0.1975;1.3767;9.8138;3.1;38.606;NaN;0 / 0;528516;2018-04-04 20:36:18:162;;;;;;
-0.1269;1.415;9.7899;3.1;36.2;NaN;0 / 0;529016;2018-04-04 20:36:18:662;;;;;;
-0.1652;1.3827;9.7803;3.1;33.183;NaN;0 / 0;529516;2018-04-04 20:36:19:162;;;;;;
-0.4022;1.4533;9.839;3.1;36.245;NaN;0 / 0;530015;2018-04-04 20:36:19:661;;;;;;
-0.5339;1.494;9.8414;3.1;46.327;NaN;0 / 0;530516;2018-04-04 20:36:20:162;;;;;;
-0.5219;1.3982;9.681;3.1;32.624;NaN;0 / 0;531016;2018-04-04 20:36:20:662;;;;;;
-0.4214;1.3707;9.5648;3.1;30.788;NaN;0 / 0;531516;2018-04-04 20:36:21:162;;;;;;
-0.1041;1.4066;9.8078;3.1;41.83;NaN;0 / 0;532016;2018-04-04 20:36:21:662;;;;;;
0.0263;1.4257;9.9132;3.1;36.228;NaN;0 / 0;532516;2018-04-04 20:36:22:162;;;;;;
-0.2502;1.4162;9.7767;3.1;30.974;NaN;0 / 0;533016;2018-04-04 20:36:22:662;;;;;;
-0.5818;1.4114;9.681;3.1;35.537;NaN;0 / 0;533516;2018-04-04 20:36:23:162;;;;;;
-0.5734;1.4581;9.6881;3.1;33.603;NaN;0 / 0;534016;2018-04-04 20:36:23:662;;;;;;
-0.4166;1.4353;9.7252;3.1;35.855;NaN;0 / 0;534516;2018-04-04 20:36:24:162;;;;;;
-0.1796;1.3767;9.7312;3.1;34.119;NaN;0 / 0;535016;2018-04-04 20:36:24:662;;;;;;
-0.085;1.4138;9.8258;3.1;40.792;NaN;0 / 0;535516;2018-04-04 20:36:25:162;;;;;;
-0.1748;1.4413;9.9;3.1;47.163;NaN;0 / 0;536016;2018-04-04 20:36:25:662;;;;;;
-0.3879;1.4006;9.7336;3.1;47.802;NaN;0 / 0;536516;2018-04-04 20:36:26:162;;;;;;
-0.5746;1.3731;9.6235;3.1;38.475;NaN;0 / 0;537016;2018-04-04 20:36:26:662;;;;;;
-0.4513;1.4413;9.7169;3.1;32.679;NaN;0 / 0;537515;2018-04-04 20:36:27:161;;;;;;
-0.2729;1.4449;9.7851;3.1;35.011;NaN;0 / 0;538016;2018-04-04 20:36:27:662;;;;;;
-0.1664;1.4198;9.8857;3.1;30.598;NaN;0 / 0;538516;2018-04-04 20:36:28:162;;;;;;
-0.2131;1.3515;9.7959;3.1;29.032;NaN;0 / 0;539016;2018-04-04 20:36:28:662;;;;;;
-0.419;1.3563;9.5373;3.1;37.59;NaN;0 / 0;539516;2018-04-04 20:36:29:162;;;;;;
-0.5399;1.4485;9.7193;3.1;38.673;NaN;0 / 0;540015;2018-04-04 20:36:29:661;;;;;;
-0.4561;1.4904;9.8653;3.1;34.082;NaN;0 / 0;540516;2018-04-04 20:36:30:162;;;;;;
-0.2682;1.3695;9.6881;3.1;42.934;NaN;0 / 0;541016;2018-04-04 20:36:30:662;;;;;;
-0.1951;1.3384;9.7408;3.1;39.866;NaN;0 / 0;541516;2018-04-04 20:36:31:162;;;;;;
-0.231;1.4605;9.8904;3.1;46.936;NaN;0 / 0;542016;2018-04-04 20:36:31:662;;;;;;
-0.2849;1.4281;9.7971;3.1;30.221;NaN;0 / 0;542516;2018-04-04 20:36:32:162;;;;;;
-0.4669;1.3719;9.6462;3.1;28.961;NaN;0 / 0;543015;2018-04-04 20:36:32:661;;;;;;
-0.6213;1.4808;9.7851;3.1;37.2;NaN;0 / 0;543516;2018-04-04 20:36:33:162;;;;;;
-0.4764;1.409;9.7013;3.1;29.227;NaN;0 / 0;544016;2018-04-04 20:36:33:662;;;;;;
-0.2801;1.3527;9.6953;3.1;29.587;NaN;0 / 0;544516;2018-04-04 20:36:34:162;;;;;;
-0.1736;1.4222;9.8964;3.1;29.822;NaN;0 / 0;545016;2018-04-04 20:36:34:662;;;;;;
-0.261;1.4078;9.8138;3.1;30.223;NaN;0 / 0;545515;2018-04-04 20:36:35:161;;;;;;
-0.4537;1.3791;9.6438;3.1;40.129;NaN;0 / 0;546016;2018-04-04 20:36:35:662;;;;;;
-0.5626;1.4006;9.6438;3.1;34.812;NaN;0 / 0;546516;2018-04-04 20:36:36:162;;;;;;
-0.4968;1.4808;9.754;3.1;40.985;NaN;0 / 0;547016;2018-04-04 20:36:36:662;;;;;;
-0.3292;1.4569;9.833;3.1;38.054;NaN;0 / 0;547516;2018-04-04 20:36:37:162;;;;;;
-0.2119;1.3515;9.8258;3.1;47.679;NaN;0 / 0;548015;2018-04-04 20:36:37:661;;;;;;
-0.1628;1.3192;9.7887;3.1;42.896;NaN;0 / 0;548516;2018-04-04 20:36:38:162;;;;;;
-0.2921;1.4341;9.7839;3.1;35.914;NaN;0 / 0;549016;2018-04-04 20:36:38:662;;;;;;
-0.5567;1.4664;9.6977;3.1;36.167;NaN;0 / 0;549516;2018-04-04 20:36:39:162;;;;;;
-0.5267;1.3994;9.754;3.1;36.269;NaN;0 / 0;550016;2018-04-04 20:36:39:662;;;;;;
-0.3735;1.3827;9.7396;3.1;34.736;NaN;0 / 0;550516;2018-04-04 20:36:40:162;;;;;;
-0.2286;1.4162;9.7695;3.1;31.803;NaN;0 / 0;551016;2018-04-04 20:36:40:662;;;;;;
-0.2454;1.3946;9.748;3.1;34.8;NaN;0 / 0;551516;2018-04-04 20:36:41:162;;;;;;
-0.3256;1.3695;9.7193;3.1;41.366;NaN;0 / 0;552016;2018-04-04 20:36:41:662;;;;;;
-0.3699;1.4317;9.7396;3.1;32.829;NaN;0 / 0;552516;2018-04-04 20:36:42:162;;;;;;
-0.425;1.4246;9.7001;3.1;43.788;NaN;0 / 0;553016;2018-04-04 20:36:42:662;;;;;;
-0.4274;1.3922;9.7707;3.1;41.243;NaN;0 / 0;553516;2018-04-04 20:36:43:162;;;;;;
-0.3196;1.4114;9.7971;3.1;35.678;NaN;0 / 0;554016;2018-04-04 20:36:43:662;;;;;;
-0.1616;1.409;9.7133;3.1;38.757;NaN;0 / 0;554516;2018-04-04 20:36:44:162;;;;;;
-0.2179;1.4377;9.8725;3.1;45.92;NaN;0 / 0;555016;2018-04-04 20:36:44:662;;;;;;
-0.3675;1.4413;9.9276;3.1;49.079;NaN;0 / 0;555516;2018-04-04 20:36:45:162;;;;;;
-0.4597;1.3647;9.5517;3.1;41.215;NaN;0 / 0;556016;2018-04-04 20:36:45:662;;;;;;
-0.4968;1.3515;9.5026;3.1;48.256;NaN;0 / 0;556516;2018-04-04 20:36:46:162;;;;;;
-0.4226;1.4545;9.8114;3.1;43.919;NaN;0 / 0;557016;2018-04-04 20:36:46:662;;;;;;
-0.1772;1.4593;9.8785;3.1;32.71;NaN;0 / 0;557516;2018-04-04 20:36:47:162;;;;;;
-0.2179;1.3707;9.7552;3.1;40.524;NaN;0 / 0;558016;2018-04-04 20:36:47:662;;;;;;
-0.334;1.3647;9.7911;3.1;47.873;NaN;0 / 0;558516;2018-04-04 20:36:48:162;;;;;;
-0.3615;1.391;9.736;3.1;31.609;NaN;0 / 0;559015;2018-04-04 20:36:48:661;;;;;;
-0.4345;1.4557;9.7085;3.1;46.618;NaN;0 / 0;559516;2018-04-04 20:36:49:162;;;;;;
-0.4334;1.4485;9.8078;3.1;39.676;NaN;0 / 0;560016;2018-04-04 20:36:49:662;;;;;;
-0.3735;1.385;9.7025;3.1;32.901;NaN;0 / 0;560516;2018-04-04 20:36:50:162;;;;;;
-0.2382;1.391;9.8007;3.1;33.472;NaN;0 / 0;561016;2018-04-04 20:36:50:662;;;;;;
-0.2729;1.4413;9.9252;3.1;40.838;NaN;0 / 0;561515;2018-04-04 20:36:51:161;;;;;;
-0.3962;1.3599;9.6151;3.1;31.189;NaN;0 / 0;562016;2018-04-04 20:36:51:662;;;;;;
-0.3962;1.3551;9.5589;3.1;38.289;NaN;0 / 0;562516;2018-04-04 20:36:52:162;;;;;;
-0.3328;1.4581;9.8318;3.1;29.645;NaN;0 / 0;563016;2018-04-04 20:36:52:662;;;;;;
-0.3783;1.4664;9.8198;3.1;33.789;NaN;0 / 0;563516;2018-04-04 20:36:53:162;;;;;;
-0.4106;1.3587;9.6271;3.1;30.715;NaN;0 / 0;564016;2018-04-04 20:36:53:662;;;;;;
-0.3232;1.3551;9.6857;3.1;33.683;NaN;0 / 0;564516;2018-04-04 20:36:54:162;;;;;;
-0.2059;1.4509;9.9515;3.1;30.609;NaN;0 / 0;565016;2018-04-04 20:36:54:662;;;;;;
-0.2346;1.4234;9.7839;3.1;29.267;NaN;0 / 0;565516;2018-04-04 20:36:55:162;;;;;;
-0.3292;1.3551;9.5541;3.1;35.356;NaN;0 / 0;566016;2018-04-04 20:36:55:662;;;;;;
-0.4082;1.3671;9.5553;3.1;36.009;NaN;0 / 0;566515;2018-04-04 20:36:56:161;;;;;;
-0.3891;1.4916;9.8509;3.1;30.932;NaN;0 / 0;567016;2018-04-04 20:36:56:662;;;;;;
-0.2322;1.4377;9.9563;3.1;33.322;NaN;0 / 0;567516;2018-04-04 20:36:57:162;;;;;;
-0.1724;1.2522;9.6367;3.1;35.264;NaN;0 / 0;568016;2018-04-04 20:36:57:662;;;;;;
-0.1688;1.3396;9.5792;3.1;40.922;NaN;0 / 0;568516;2018-04-04 20:36:58:162;;;;;;
-0.2586;1.5479;9.9192;3.1;30.863;NaN;0 / 0;569016;2018-04-04 20:36:58:662;;;;;;
-0.4932;1.4365;9.7839;3.1;36.189;NaN;0 / 0;569516;2018-04-04 20:36:59:162;;;;;;
-0.4609;1.3431;9.6067;3.1;39.815;NaN;0 / 0;570016;2018-04-04 20:36:59:662;;;;;;
-0.2095;1.3731;9.8174;3.1;33.38;NaN;0 / 0;570516;2018-04-04 20:37:00:162;;;;;;
-0.1197;1.4401;9.821;3.1;38.635;NaN;0 / 0;571016;2018-04-04 20:37:00:662;;;;;;
-0.3663;1.4413;9.645;3.1;31.436;NaN;0 / 0;571516;2018-04-04 20:37:01:162;;;;;;
-0.4585;1.4174;9.7193;3.1;40.231;NaN;0 / 0;572016;2018-04-04 20:37:01:662;;;;;;
-0.3723;1.4521;9.8952;3.1;41.116;NaN;0 / 0;572516;2018-04-04 20:37:02:162;;;;;;
-0.2454;1.4329;9.9192;3.1;41.248;NaN;0 / 0;573016;2018-04-04 20:37:02:662;;;;;;
-0.3172;1.3647;9.5624;3.1;42.39;NaN;0 / 0;573516;2018-04-04 20:37:03:162;;;;;;
-0.4202;1.4042;9.6259;3.1;42.846;NaN;0 / 0;574015;2018-04-04 20:37:03:661;;;;;;
-0.4154;1.5131;9.9144;3.1;32.035;NaN;0 / 0;574516;2018-04-04 20:37:04:162;;;;;;
-0.2921;1.4293;9.8629;3.1;43.355;NaN;0 / 0;575016;2018-04-04 20:37:04:662;;;;;;
-0.2083;1.33;9.6546;3.1;47.854;NaN;0 / 0;575516;2018-04-04 20:37:05:162;;;;;;
-0.3292;1.4162;9.7815;3.1;44.991;NaN;0 / 0;576015;2018-04-04 20:37:05:661;;;;;;
-0.4405;1.47;9.7564;3.1;44.869;NaN;0 / 0;576516;2018-04-04 20:37:06:162;;;;;;
-0.4178;1.3886;9.6235;3.1;46.897;NaN;0 / 0;577016;2018-04-04 20:37:06:662;;;;;;
-0.2945;1.3815;9.754;3.1;45.58;NaN;0 / 0;577516;2018-04-04 20:37:07:162;;;;;;
-0.2143;1.4365;9.7959;3.1;36.399;NaN;0 / 0;578016;2018-04-04 20:37:07:662;;;;;;
-0.2322;1.4377;9.8234;3.1;37.108;NaN;0 / 0;578516;2018-04-04 20:37:08:162;;;;;;
-0.3555;1.3815;9.7396;3.1;36.869;NaN;0 / 0;579016;2018-04-04 20:37:08:662;;;;;;
-0.4274;1.4018;9.6031;3.1;46.114;NaN;0 / 0;579516;2018-04-04 20:37:09:162;;;;;;
-0.3304;1.4593;9.7875;3.1;42.711;NaN;0 / 0;580016;2018-04-04 20:37:09:662;;;;;;
-0.2466;1.4461;9.8976;3.1;50.986;NaN;0 / 0;580516;2018-04-04 20:37:10:162;;;;;;
-0.3053;1.4042;9.8282;3.1;35.705;NaN;0 / 0;581016;2018-04-04 20:37:10:662;;;;;;
-0.3436;1.3779;9.6822;3.1;43.251;NaN;0 / 0;581516;2018-04-04 20:37:11:162;;;;;;
-0.3124;1.4126;9.6941;3.1;50.525;NaN;0 / 0;582016;2018-04-04 20:37:11:662;;;;;;
-0.3531;1.4413;9.7887;3.1;49.726;NaN;0 / 0;582516;2018-04-04 20:37:12:162;;;;;;
-0.3938;1.421;9.7312;3.1;57.138;NaN;0 / 0;583016;2018-04-04 20:37:12:662;;;;;;
-0.3759;1.3755;9.6726;3.1;66.671;NaN;0 / 0;583516;2018-04-04 20:37:13:162;;;;;;
-0.2191;1.3946;9.8809;3.1;46.086;NaN;0 / 0;584015;2018-04-04 20:37:13:661;;;;;;
-0.2478;1.4317;9.7815;3.1;30.489;NaN;0 / 0;584516;2018-04-04 20:37:14:162;;;;;;
-0.334;1.4401;9.7264;3.1;38.862;NaN;0 / 0;585016;2018-04-04 20:37:14:662;;;;;;
-0.31;1.385;9.8043;3.1;47.154;NaN;0 / 0;585516;2018-04-04 20:37:15:162;;;;;;
-0.3795;1.4018;9.7935;3.1;50.23;NaN;0 / 0;586016;2018-04-04 20:37:15:662;;;;;;
-0.4178;1.4509;9.8067;3.1;50.756;NaN;0 / 0;586515;2018-04-04 20:37:16:161;;;;;;
-0.3567;1.4246;9.7995;3.1;47.948;NaN;0 / 0;587016;2018-04-04 20:37:16:662;;;;;;
-0.2131;1.3958;9.7923;3.1;40.858;NaN;0 / 0;587516;2018-04-04 20:37:17:162;;;;;;
-0.2897;1.391;9.7288;3.1;47.866;NaN;0 / 0;588016;2018-04-04 20:37:17:662;;;;;;
-0.4322;1.4234;9.6845;3.1;46.146;NaN;0 / 0;588516;2018-04-04 20:37:18:162;;;;;;
-0.4262;1.4257;9.6438;3.1;31.144;NaN;0 / 0;589015;2018-04-04 20:37:18:661;;;;;;
-0.2646;1.3695;9.7085;3.1;34.218;NaN;0 / 0;589516;2018-04-04 20:37:19:162;;;;;;
-0.2658;1.4186;9.8438;3.1;37.194;NaN;0 / 0;590016;2018-04-04 20:37:19:662;;;;;;
-0.3041;1.4545;9.76;3.1;45.396;NaN;0 / 0;590516;2018-04-04 20:37:20:162;;;;;;
-0.3855;1.4162;9.5768;3.1;35.701;NaN;0 / 0;591016;2018-04-04 20:37:20:662;;;;;;
-0.3926;1.3803;9.7432;3.1;37.542;NaN;0 / 0;591515;2018-04-04 20:37:21:161;;;;;;
-0.334;1.421;9.8318;3.1;50.334;NaN;0 / 0;592016;2018-04-04 20:37:21:662;;;;;;
-0.2873;1.4461;9.7971;3.1;30.937;NaN;0 / 0;592516;2018-04-04 20:37:22:162;;;;;;
-0.2514;1.3803;9.7659;3.1;39.417;NaN;0 / 0;593016;2018-04-04 20:37:22:662;;;;;;
-0.3292;1.3946;9.6786;3.1;48.173;NaN;0 / 0;593516;2018-04-04 20:37:23:162;;;;;;
-0.3735;1.4581;9.8881;3.1;31.223;NaN;0 / 0;594015;2018-04-04 20:37:23:661;;;;;;
-0.3603;1.4808;9.9886;3.1;51.427;NaN;0 / 0;594516;2018-04-04 20:37:24:162;;;;;;
-0.3328;1.3587;9.7564;3.1;50.631;NaN;0 / 0;595016;2018-04-04 20:37:24:662;;;;;;
-0.3998;1.3719;9.5924;3.1;51.254;NaN;0 / 0;595516;2018-04-04 20:37:25:162;;;;;;
-0.4094;1.4712;9.7839;3.1;38.238;NaN;0 / 0;596016;2018-04-04 20:37:25:662;;;;;;
-0.3328;1.4473;9.8689;3.1;41.914;NaN;0 / 0;596515;2018-04-04 20:37:26:161;;;;;;
-0.2095;1.4066;9.8497;3.1;40.001;NaN;0 / 0;597016;2018-04-04 20:37:26:662;;;;;;
-0.3328;1.3695;9.6666;3.1;47.025;NaN;0 / 0;597516;2018-04-04 20:37:27:162;;;;;;
-0.4477;1.4114;9.6079;3.1;49.125;NaN;0 / 0;598016;2018-04-04 20:37:27:662;;;;;;
-0.4681;1.4497;9.7037;3.1;31.483;NaN;0 / 0;598516;2018-04-04 20:37:28:162;;;;;;
-0.3077;1.4437;9.8617;3.1;31.171;NaN;0 / 0;599016;2018-04-04 20:37:28:662;;;;;;
-0.1975;1.3815;9.8126;3.1;43.2;NaN;0 / 0;599516;2018-04-04 20:37:29:162;;;;;;
-0.2753;1.3815;9.7648;3.1;31.747;NaN;0 / 0;600016;2018-04-04 20:37:29:662;;;;;;
-0.4082;1.421;9.669;3.1;48.569;NaN;0 / 0;600516;2018-04-04 20:37:30:162;;;;;;
-0.5183;1.4305;9.578;3.1;43.291;NaN;0 / 0;601016;2018-04-04 20:37:30:662;;;;;;
-0.4274;1.4545;9.7588;3.1;53.522;NaN;0 / 0;601516;2018-04-04 20:37:31:162;;;;;;
-0.2753;1.4114;9.9264;3.1;43.741;NaN;0 / 0;602015;2018-04-04 20:37:31:661;;;;;;
-0.1772;1.3563;9.8055;3.1;44.926;NaN;0 / 0;602516;2018-04-04 20:37:32:162;;;;;;
-0.2107;1.3898;9.6235;3.1;46.964;NaN;0 / 0;603016;2018-04-04 20:37:32:662;;;;;;
-0.401;1.488;9.8474;3.1;49.402;NaN;0 / 0;603516;2018-04-04 20:37:33:162;;;;;;
-0.4621;1.415;9.7612;3.1;42.66;NaN;0 / 0;604016;2018-04-04 20:37:33:662;;;;;;
-0.4585;1.3575;9.5852;3.1;52.19;NaN;0 / 0;604516;2018-04-04 20:37:34:162;;;;;;
-0.3448;1.4114;9.742;3.1;33.099;NaN;0 / 0;605016;2018-04-04 20:37:34:662;;;;;;
-0.0491;1.4425;10.0161;3.1;45.069;NaN;0 / 0;605516;2018-04-04 20:37:35:162;;;;;;
-0.079;1.397;9.8198;3.1;46.901;NaN;0 / 0;606016;2018-04-04 20:37:35:662;;;;;;
-0.3998;1.3707;9.6211;3.1;39.93;NaN;0 / 0;606516;2018-04-04 20:37:36:162;;;;;;
-0.6249;1.4329;9.651;3.1;39.688;NaN;0 / 0;607016;2018-04-04 20:37:36:662;;;;;;
-0.4657;1.4605;9.8174;3.1;41.587;NaN;0 / 0;607516;2018-04-04 20:37:37:162;;;;;;
-0.31;1.3767;9.7157;3.1;42.742;NaN;0 / 0;608015;2018-04-04 20:37:37:661;;;;;;
-0.2454;1.3587;9.7288;3.1;45.195;NaN;0 / 0;608516;2018-04-04 20:37:38:162;;;;;;
-0.2083;1.4485;9.8665;3.1;49.073;NaN;0 / 0;609016;2018-04-04 20:37:38:662;;;;;;
-0.2622;1.4353;9.7959;3.1;51.21;NaN;0 / 0;609516;2018-04-04 20:37:39:162;;;;;;
-0.4453;1.3827;9.657;3.1;43.17;NaN;0 / 0;610016;2018-04-04 20:37:39:662;;;;;;
-0.5028;1.3767;9.6642;3.1;32.091;NaN;0 / 0;610516;2018-04-04 20:37:40:162;;;;;;
-0.3962;1.4162;9.7229;3.1;31.193;NaN;0 / 0;611016;2018-04-04 20:37:40:662;;;;;;
-0.2466;1.4341;9.7432;3.1;41.378;NaN;0 / 0;611516;2018-04-04 20:37:41:162;;;;;;
-0.2239;1.403;9.7947;3.1;42.018;NaN;0 / 0;612016;2018-04-04 20:37:41:662;;;;;;
-0.2251;1.4006;9.8952;3.1;37.731;NaN;0 / 0;612516;2018-04-04 20:37:42:162;;;;;;
-0.3998;1.4257;9.754;3.1;36.522;NaN;0 / 0;613015;2018-04-04 20:37:42:661;;;;;;
-0.5183;1.3982;9.6091;3.1;31.785;NaN;0 / 0;613516;2018-04-04 20:37:43:162;;;;;;
-0.51;1.4257;9.7312;3.1;33.024;NaN;0 / 0;614015;2018-04-04 20:37:43:661;;;;;;
-0.4022;1.4401;9.7971;3.1;30.276;NaN;0 / 0;614516;2018-04-04 20:37:44:162;;;;;;
-0.152;1.4234;9.8198;3.1;35.15;NaN;0 / 0;615016;2018-04-04 20:37:44:662;;;;;;
-0.103;1.3874;9.827;3.1;38.979;NaN;0 / 0;615516;2018-04-04 20:37:45:162;;;;;;
-0.3615;1.4006;9.6845;3.1;37.687;NaN;0 / 0;616016;2018-04-04 20:37:45:662;;;;;;
-0.4764;1.4281;9.7803;3.1;31.865;NaN;0 / 0;616515;2018-04-04 20:37:46:161;;;;;;
-0.5578;1.4198;9.754;3.1;30.488;NaN;0 / 0;617016;2018-04-04 20:37:46:662;;;;;;
-0.4884;1.4174;9.487;3.1;30.692;NaN;0 / 0;617515;2018-04-04 20:37:47:161;;;;;;
-0.1772;1.4257;9.8414;3.1;30.363;NaN;0 / 0;618016;2018-04-04 20:37:47:662;;;;;;
-0.0156;1.4317;10.064;3.1;31.985;NaN;0 / 0;618516;2018-04-04 20:37:48:162;;;;;;
-0.1939;1.3731;9.7408;3.1;31.625;NaN;0 / 0;619016;2018-04-04 20:37:48:662;;;;;;
-0.4788;1.3515;9.5062;3.1;31.706;NaN;0 / 0;619516;2018-04-04 20:37:49:162;;;;;;
-0.5447;1.5239;9.9934;3.1;30.7;NaN;0 / 0;620015;2018-04-04 20:37:49:661;;;;;;
-0.4513;1.5323;10.0221;3.1;37.337;NaN;0 / 0;620516;2018-04-04 20:37:50:162;;;;;;
-0.3136;1.3204;9.5098;3.1;37.027;NaN;0 / 0;621016;2018-04-04 20:37:50:662;;;;;;
-0.2562;1.306;9.5732;3.1;45.429;NaN;0 / 0;621516;2018-04-04 20:37:51:162;;;;;;
-0.2454;1.4964;9.9491;3.1;40.08;NaN;0 / 0;622016;2018-04-04 20:37:51:662;;;;;;
-0.2526;1.5227;9.9575;3.1;30.445;NaN;0 / 0;622516;2018-04-04 20:37:52:162;;;;;;
-0.3926;1.3647;9.6917;3.1;32.997;NaN;0 / 0;623016;2018-04-04 20:37:52:662;;;;;;
-0.5531;1.312;9.6055;3.1;31.219;NaN;0 / 0;623515;2018-04-04 20:37:53:161;;;;;;
-0.4465;1.4748;9.7384;3.1;39.704;NaN;0 / 0;624016;2018-04-04 20:37:53:662;;;;;;
-0.2442;1.4808;9.8234;3.1;40.867;NaN;0 / 0;624516;2018-04-04 20:37:54:162;;;;;;
-0.1257;1.3683;9.8234;3.1;43.11;NaN;0 / 0;625016;2018-04-04 20:37:54:662;;;;;;
-0.2586;1.3372;9.657;3.1;46.75;NaN;0 / 0;625516;2018-04-04 20:37:55:162;;;;;;
-0.4202;1.3994;9.6498;3.1;34.121;NaN;0 / 0;626016;2018-04-04 20:37:55:662;;;;;;
-0.4381;1.4605;9.821;3.1;36.255;NaN;0 / 0;626516;2018-04-04 20:37:56:162;;;;;;
-0.3436;1.4341;9.8785;3.1;43.141;NaN;0 / 0;627015;2018-04-04 20:37:56:661;;;;;;
-0.2263;1.3719;9.7073;3.1;41.527;NaN;0 / 0;627516;2018-04-04 20:37:57:162;;;;;;
-0.2418;1.3946;9.6486;3.1;40.284;NaN;0 / 0;628016;2018-04-04 20:37:57:662;;;;;;
-0.3424;1.4162;9.6666;3.1;35.98;NaN;0 / 0;628516;2018-04-04 20:37:58:162;;;;;;
-0.3962;1.4198;9.8019;3.1;34.566;NaN;0 / 0;629016;2018-04-04 20:37:58:662;;;;;;
-0.4142;1.4102;9.7887;3.1;44.86;NaN;0 / 0;629516;2018-04-04 20:37:59:162;;;;;;
-0.2693;1.4305;9.8234;3.1;35.511;NaN;0 / 0;630016;2018-04-04 20:37:59:662;;;;;;
-0.1891;1.3982;9.8426;3.1;33.809;NaN;0 / 0;630516;2018-04-04 20:38:00:162;;;;;;
-0.2861;1.3599;9.7229;3.1;33.346;NaN;0 / 0;631015;2018-04-04 20:38:00:661;;;;;;
-0.4609;1.4317;9.6989;3.1;34.887;NaN;0 / 0;631516;2018-04-04 20:38:01:162;;;;;;
-0.4214;1.4138;9.7875;3.1;40.299;NaN;0 / 0;632016;2018-04-04 20:38:01:662;;;;;;
-0.3304;1.3647;9.7049;3.1;39.639;NaN;0 / 0;632516;2018-04-04 20:38:02:162;;;;;;
-0.1496;1.4078;9.7815;3.1;36.034;NaN;0 / 0;633016;2018-04-04 20:38:02:662;;;;;;
-0.1472;1.4054;9.8916;3.1;32.095;NaN;0 / 0;633516;2018-04-04 20:38:03:162;;;;;;
-0.3148;1.3862;9.742;3.1;34.89;NaN;0 / 0;634016;2018-04-04 20:38:03:662;;;;;;
-0.3974;1.3874;9.7133;3.1;31.858;NaN;0 / 0;634515;2018-04-04 20:38:04:161;;;;;;
-0.4022;1.3874;9.657;3.1;31.901;NaN;0 / 0;635016;2018-04-04 20:38:04:662;;;;;;
-0.34;1.3982;9.6738;3.1;41.209;NaN;0 / 0;635516;2018-04-04 20:38:05:162;;;;;;
-0.2095;1.4186;9.9132;3.1;49.25;NaN;0 / 0;636016;2018-04-04 20:38:05:662;;;;;;
-0.1664;1.4162;9.9347;3.1;49.117;NaN;0 / 0;636516;2018-04-04 20:38:06:162;;;;;;
-0.3735;1.4186;9.7755;3.1;40.147;NaN;0 / 0;637015;2018-04-04 20:38:06:661;;;;;;
-0.5447;1.3599;9.4978;3.1;39.719;NaN;0 / 0;637516;2018-04-04 20:38:07:162;;;;;;
-0.5866;1.4006;9.5612;3.1;35.157;NaN;0 / 0;638016;2018-04-04 20:38:07:662;;;;;;
-0.4896;1.4832;9.8366;3.1;31.06;NaN;0 / 0;638516;2018-04-04 20:38:08:162;;;;;;
-0.2741;1.4557;9.9467;3.1;39.867;NaN;0 / 0;639016;2018-04-04 20:38:08:662;;;;;;
-0.1676;1.3072;9.7671;3.1;61.771;NaN;0 / 0;639515;2018-04-04 20:38:09:161;;;;;;
-0.2717;1.4078;9.7576;3.1;58.954;NaN;0 / 0;640016;2018-04-04 20:38:09:662;;;;;;
-0.4429;1.4629;9.7827;3.1;36.464;NaN;0 / 0;640516;2018-04-04 20:38:10:162;;;;;;
-0.6512;1.4353;9.6486;3.1;51.012;NaN;0 / 0;641016;2018-04-04 20:38:10:662;;;;;;
-0.5698;1.3934;9.6762;3.1;35.111;NaN;0 / 0;641516;2018-04-04 20:38:11:162;;;;;;
-0.2897;1.3982;9.8318;3.1;37.947;NaN;0 / 0;642016;2018-04-04 20:38:11:662;;;;;;
-0.1856;1.4162;9.8509;3.1;38.78;NaN;0 / 0;642516;2018-04-04 20:38:12:162;;;;;;
-0.2741;1.4174;9.8174;3.1;39.759;NaN;0 / 0;643016;2018-04-04 20:38:12:662;;;;;;
-0.5351;1.4281;9.6786;3.1;41.742;NaN;0 / 0;643516;2018-04-04 20:38:13:162;;;;;;
-0.6488;1.3623;9.6043;3.1;40.621;NaN;0 / 0;644016;2018-04-04 20:38:13:662;;;;;;
-0.5447;1.4234;9.7097;3.1;49.958;NaN;0 / 0;644516;2018-04-04 20:38:14:162;;;;;;
-0.34;1.5048;9.8928;3.1;50.979;NaN;0 / 0;645016;2018-04-04 20:38:14:662;;;;;;
-0.1592;1.3874;9.8833;3.1;40.112;NaN;0 / 0;645515;2018-04-04 20:38:15:161;;;;;;
-0.2598;1.3288;9.7276;3.1;59.007;NaN;0 / 0;646016;2018-04-04 20:38:15:662;;;;;;
-0.4034;1.3946;9.6786;3.1;33.327;NaN;0 / 0;646516;2018-04-04 20:38:16:162;;;;;;
-0.5614;1.4581;9.7959;3.1;36.095;NaN;0 / 0;647016;2018-04-04 20:38:16:662;;;;;;
-0.5938;1.3958;9.7169;3.1;42.006;NaN;0 / 0;647516;2018-04-04 20:38:17:162;;;;;;
-0.4788;1.3551;9.6091;3.1;43.54;NaN;0 / 0;648016;2018-04-04 20:38:17:662;;;;;;
-0.346;1.3695;9.6917;3.1;40.313;NaN;0 / 0;648516;2018-04-04 20:38:18:162;;;;;;
-0.2538;1.4413;9.8521;3.1;40.995;NaN;0 / 0;649015;2018-04-04 20:38:18:661;;;;;;
-0.2981;1.4174;9.8402;3.1;40.52;NaN;0 / 0;649516;2018-04-04 20:38:19:162;;;;;;
-0.4477;1.3443;9.6534;3.1;33.527;NaN;0 / 0;650016;2018-04-04 20:38:19:662;;;;;;
-0.5423;1.409;9.6259;3.1;42.271;NaN;0 / 0;650516;2018-04-04 20:38:20:162;;;;;;
-0.5315;1.4928;9.7827;3.1;47.2;NaN;0 / 0;651016;2018-04-04 20:38:20:662;;;;;;
-0.4058;1.4581;9.8557;3.1;32.836;NaN;0 / 0;651516;2018-04-04 20:38:21:162;;;;;;
-0.3795;1.4222;9.7779;3.1;32.206;NaN;0 / 0;652016;2018-04-04 20:38:21:662;;;;;;
-0.3376;1.4497;9.6977;3.1;42.722;NaN;0 / 0;652516;2018-04-04 20:38:22:162;;;;;;
-0.4585;1.4664;9.839;3.1;42.328;NaN;0 / 0;653016;2018-04-04 20:38:22:662;;;;;;
-0.5279;1.4425;9.7288;3.1;41.014;NaN;0 / 0;653515;2018-04-04 20:38:23:161;;;;;;
-0.5806;1.409;9.5972;3.1;45.846;NaN;0 / 0;654016;2018-04-04 20:38:23:662;;;;;;
-0.4884;1.4353;9.6714;3.1;56.97;NaN;0 / 0;654516;2018-04-04 20:38:24:162;;;;;;
-0.3436;1.5299;9.845;3.1;43.364;NaN;0 / 0;655016;2018-04-04 20:38:24:662;;;;;;
-0.2909;1.4533;9.8402;3.1;36.997;NaN;0 / 0;655516;2018-04-04 20:38:25:162;;;;;;
-0.4274;1.3838;9.6175;3.1;35.74;NaN;0 / 0;656016;2018-04-04 20:38:25:662;;;;;;
-0.5351;1.403;9.5996;3.1;40.137;NaN;0 / 0;656516;2018-04-04 20:38:26:162;;;;;;
-0.5782;1.5562;9.7743;3.1;47.851;NaN;0 / 0;657016;2018-04-04 20:38:26:662;;;;;;
-0.5375;1.5371;9.8617;3.1;43.119;NaN;0 / 0;657516;2018-04-04 20:38:27:162;;;;;;
-0.3352;1.4329;9.8629;3.1;40.399;NaN;0 / 0;658016;2018-04-04 20:38:27:662;;;;;;
-0.2167;1.421;9.7659;3.1;40.076;NaN;0 / 0;658516;2018-04-04 20:38:28:162;;;;;;
-0.3651;1.4748;9.6965;3.1;43.171;NaN;0 / 0;659016;2018-04-04 20:38:28:662;;;;;;
-0.5112;1.4844;9.8833;3.1;33.369;NaN;0 / 0;659515;2018-04-04 20:38:29:161;;;;;;
-0.4334;1.482;9.8126;3.1;46.542;NaN;0 / 0;660016;2018-04-04 20:38:29:662;;;;;;
-0.3424;1.4269;9.6415;3.1;48.652;NaN;0 / 0;660515;2018-04-04 20:38:30:161;;;;;;
-0.1915;1.3683;9.6343;3.1;37.137;NaN;0 / 0;661016;2018-04-04 20:38:30:662;;;;;;
-0.0347;1.4473;9.7564;3.1;34.972;NaN;0 / 0;661516;2018-04-04 20:38:31:162;;;;;;
-0.1987;1.4892;9.7456;3.1;49.681;NaN;0 / 0;662016;2018-04-04 20:38:31:662;;;;;;
-0.3053;1.4078;9.7516;3.1;44.772;NaN;0 / 0;662516;2018-04-04 20:38:32:162;;;;;;
-0.2119;1.3659;9.7827;3.1;41.755;NaN;0 / 0;663016;2018-04-04 20:38:32:662;;;;;;
-0.1532;1.4557;9.7217;3.1;48.225;NaN;0 / 0;663516;2018-04-04 20:38:33:162;;;;;;
-0.3065;1.4928;9.663;3.1;48.15;NaN;0 / 0;664016;2018-04-04 20:38:33:662;;;;;;
-0.2981;1.4186;9.651;3.1;35.969;NaN;0 / 0;664516;2018-04-04 20:38:34:162;;;;;;
-0.2035;1.3683;9.8102;3.1;31.833;NaN;0 / 0;665016;2018-04-04 20:38:34:662;;;;;;
-0.1532;1.4329;9.7935;3.1;32.289;NaN;0 / 0;665516;2018-04-04 20:38:35:162;;;;;;
-0.2346;1.4712;9.7516;3.1;55.599;NaN;0 / 0;666015;2018-04-04 20:38:35:661;;;;;;
-0.2993;1.4521;9.8198;3.1;35.887;NaN;0 / 0;666516;2018-04-04 20:38:36:162;;;;;;
-0.3208;1.409;9.7564;3.1;41.113;NaN;0 / 0;667016;2018-04-04 20:38:36:662;;;;;;
-0.3388;1.3982;9.6223;3.1;42.594;NaN;0 / 0;667516;2018-04-04 20:38:37:162;;;;;;
-0.2502;1.409;9.6941;3.1;44.778;NaN;0 / 0;668016;2018-04-04 20:38:37:662;;;;;;
-0.1915;1.3779;9.9108;3.1;39.037;NaN;0 / 0;668516;2018-04-04 20:38:38:162;;;;;;
-0.1113;1.3898;9.8761;3.1;44.941;NaN;0 / 0;669016;2018-04-04 20:38:38:662;;;;;;
-0.1844;1.3815;9.7324;3.1;42.963;NaN;0 / 0;669515;2018-04-04 20:38:39:161;;;;;;
-0.2562;1.4126;9.7013;3.1;36.18;NaN;0 / 0;670016;2018-04-04 20:38:39:662;;;;;;
-0.2897;1.4437;9.7935;3.1;44.096;NaN;0 / 0;670516;2018-04-04 20:38:40:162;;;;;;
-0.2969;1.4413;9.7468;3.1;36.954;NaN;0 / 0;671016;2018-04-04 20:38:40:662;;;;;;
-0.1963;1.3922;9.7348;3.1;37.351;NaN;0 / 0;671516;2018-04-04 20:38:41:162;;;;;;
-0.0838;1.4162;9.7504;3.1;40.706;NaN;0 / 0;672016;2018-04-04 20:38:41:662;;;;;;
-0.079;1.4198;9.7695;3.1;59.044;NaN;0 / 0;672516;2018-04-04 20:38:42:162;;;;;;
-0.2538;1.4293;9.754;0;49.867;NaN;0 / 0;673016;2018-04-04 20:38:42:662;;;;;;
-0.3699;1.4449;9.748;3.1;36.517;NaN;0 / 0;673515;2018-04-04 20:38:43:161;;;;;;
-0.3077;1.391;9.6762;3.1;34.445;NaN;0 / 0;674016;2018-04-04 20:38:43:662;;;;;;
-0.1915;1.3348;9.5768;3.1;36.478;NaN;0 / 0;674516;2018-04-04 20:38:44:162;;;;;;
-0.0479;1.391;9.7731;3.1;45.794;NaN;0 / 0;675016;2018-04-04 20:38:44:662;;;;;;
-0.0539;1.4449;9.912;3.1;37.135;NaN;0 / 0;675515;2018-04-04 20:38:45:161;;;;;;
-0.1604;1.3838;9.663;3.1;36.493;NaN;0 / 0;676016;2018-04-04 20:38:45:662;;;;;;
-0.3053;1.3443;9.5864;3.1;40.668;NaN;0 / 0;676516;2018-04-04 20:38:46:162;;;;;;
-0.3675;1.4257;9.7324;3.1;43.796;NaN;0 / 0;677016;2018-04-04 20:38:46:662;;;;;;
-0.2251;1.4509;9.8114;3.1;41.59;NaN;0 / 0;677516;2018-04-04 20:38:47:162;;;;;;
-0.0503;1.4269;9.8162;3.1;49.923;NaN;0 / 0;678016;2018-04-04 20:38:47:662;;;;;;
-0.0311;1.3827;9.8366;3.1;48.833;NaN;0 / 0;678516;2018-04-04 20:38:48:162;;;;;;
-0.2215;1.415;9.8833;3.1;47.495;NaN;0 / 0;679016;2018-04-04 20:38:48:662;;;;;;
-0.3855;1.4533;9.6845;3.1;47.427;NaN;0 / 0;679516;2018-04-04 20:38:49:162;;;;;;
-0.3508;1.403;9.596;3.1;30.171;NaN;0 / 0;680016;2018-04-04 20:38:49:662;;;;;;
-0.2873;1.3874;9.7145;3.1;31.556;NaN;0 / 0;680516;2018-04-04 20:38:50:162;;;;;;
-0.2035;1.4042;9.8893;3.1;31.052;NaN;0 / 0;681016;2018-04-04 20:38:50:662;;;;;;
-0.0096;1.4246;9.7959;3.1;48.269;NaN;0 / 0;681516;2018-04-04 20:38:51:162;;;;;;
-0.1161;1.3958;9.736;3.1;45.877;NaN;0 / 0;682015;2018-04-04 20:38:51:661;;;;;;
-0.2897;1.4186;9.7707;3.1;41.675;NaN;0 / 0;682516;2018-04-04 20:38:52:162;;;;;;
-0.3819;1.4772;9.7408;3.1;33.353;NaN;0 / 0;683016;2018-04-04 20:38:52:662;;;;;;
-0.34;1.4102;9.6606;3.1;43.234;NaN;0 / 0;683516;2018-04-04 20:38:53:162;;;;;;
-0.1915;1.3815;9.76;3.1;38.436;NaN;0 / 0;684016;2018-04-04 20:38:53:662;;;;;;
-0.0874;1.4317;9.8521;3.1;43.641;NaN;0 / 0;684515;2018-04-04 20:38:54:161;;;;;;
-0.0359;1.4581;9.8869;3.1;38.14;NaN;0 / 0;685016;2018-04-04 20:38:54:662;;;;;;
-0.2861;1.3791;9.6546;3.1;46.451;NaN;0 / 0;685516;2018-04-04 20:38:55:162;;;;;;
-0.4166;1.4078;9.5864;3.1;45.353;NaN;0 / 0;686016;2018-04-04 20:38:55:662;;;;;;
-0.3484;1.4653;9.7229;3.1;52.715;NaN;0 / 0;686516;2018-04-04 20:38:56:162;;;;;;
-0.2203;1.421;9.7636;3.1;49.359;NaN;0 / 0;687016;2018-04-04 20:38:56:662;;;;;;
-0.0551;1.403;9.7911;3.1;51.417;NaN;0 / 0;687516;2018-04-04 20:38:57:162;;;;;;
0.0539;1.3815;9.8114;3.1;42.811;NaN;0 / 0;688015;2018-04-04 20:38:57:661;;;;;;
-0.0227;1.3946;9.6845;3.1;50.872;NaN;0 / 0;688516;2018-04-04 20:38:58:162;;;;;;
-0.3196;1.4664;9.7133;3.1;45.078;NaN;0 / 0;689016;2018-04-04 20:38:58:662;;;;;;
-0.4669;1.4952;9.8258;3.1;39.695;NaN;0 / 0;689516;2018-04-04 20:38:59:162;;;;;;
-0.322;1.4138;9.7767;3.1;40.6;NaN;0 / 0;690016;2018-04-04 20:38:59:662;;;;;;
-0.1688;1.3719;9.6857;3.1;41.665;NaN;0 / 0;690515;2018-04-04 20:39:00:161;;;;;;
-0.0922;1.4269;9.7851;3.1;42.329;NaN;0 / 0;691016;2018-04-04 20:39:00:662;;;;;;
-0.2502;1.4449;9.73;3.1;37.108;NaN;0 / 0;691516;2018-04-04 20:39:01:162;;;;;;
-0.4729;1.4449;9.6702;3.1;36.09;NaN;0 / 0;692016;2018-04-04 20:39:01:662;;;;;;
-0.5028;1.476;9.748;3.1;48.684;NaN;0 / 0;692516;2018-04-04 20:39:02:162;;;;;;
-0.3543;1.4461;9.8462;3.1;38.968;NaN;0 / 0;693016;2018-04-04 20:39:02:662;;;;;;
-0.1173;1.421;9.7169;3.1;40.611;NaN;0 / 0;693516;2018-04-04 20:39:03:162;;;;;;
-0.0347;1.4257;9.7935;3.1;37.959;NaN;0 / 0;694015;2018-04-04 20:39:03:661;;;;;;
-0.2179;1.4557;9.8593;3.1;35.502;NaN;0 / 0;694516;2018-04-04 20:39:04:162;;;;;;
-0.5315;1.5167;9.6893;3.1;36.266;NaN;0 / 0;695016;2018-04-04 20:39:04:662;;;;;;
-0.5962;1.4413;9.5792;3.1;49.704;NaN;0 / 0;695516;2018-04-04 20:39:05:162;;;;;;
-0.4465;1.4473;9.7504;3.1;34.157;NaN;0 / 0;696016;2018-04-04 20:39:05:662;;;;;;
-0.2346;1.4916;9.8617;3.1;35.118;NaN;0 / 0;696516;2018-04-04 20:39:06:162;;;;;;
-0.0694;1.4593;9.7695;3.1;48.594;NaN;0 / 0;697016;2018-04-04 20:39:06:662;;;;;;
-0.249;1.4473;9.6881;3.1;36.587;NaN;0 / 0;697516;2018-04-04 20:39:07:162;;;;;;
-0.4298;1.5107;9.8426;3.1;32.033;NaN;0 / 0;698016;2018-04-04 20:39:07:662;;;;;;
-0.504;1.4916;9.7791;3.1;42.639;NaN;0 / 0;698516;2018-04-04 20:39:08:162;;;;;;
-0.4621;1.4509;9.6714;3.1;39.686;NaN;0 / 0;699016;2018-04-04 20:39:08:662;;;;;;
-0.3436;1.5119;9.7971;3.1;43.302;NaN;0 / 0;699515;2018-04-04 20:39:09:161;;;;;;
-0.1712;1.482;9.821;3.1;41.697;NaN;0 / 0;700015;2018-04-04 20:39:09:661;;;;;;
-0.1736;1.4748;9.7085;3.1;36.509;NaN;0 / 0;700516;2018-04-04 20:39:10:162;;;;;;
-0.2717;1.4533;9.6486;3.1;33.499;NaN;0 / 0;701016;2018-04-04 20:39:10:662;;;;;;
-0.3005;1.4712;9.8126;3.1;31.34;NaN;0 / 0;701516;2018-04-04 20:39:11:162;;;;;;
-0.3915;1.4988;9.8737;3.1;50.408;NaN;0 / 0;702016;2018-04-04 20:39:11:662;;;;;;
-0.4693;1.4952;9.7229;3.1;47.604;NaN;0 / 0;702516;2018-04-04 20:39:12:162;;;;;;
-0.3699;1.4736;9.5577;3.1;36.112;NaN;0 / 0;703015;2018-04-04 20:39:12:661;;;;;;
-0.243;1.4605;9.7588;3.1;52.484;NaN;0 / 0;703516;2018-04-04 20:39:13:162;;;;;;
-0.1951;1.4688;9.7995;3.1;41.902;NaN;0 / 0;704016;2018-04-04 20:39:13:662;;;;;;
-0.2047;1.4676;9.7444;3.1;39.28;NaN;0 / 0;704516;2018-04-04 20:39:14:162;;;;;;
-0.1796;1.4581;9.7827;3.1;32.476;NaN;0 / 0;705016;2018-04-04 20:39:14:662;;;;;;
-0.1628;1.4377;9.8055;3.1;33.639;NaN;0 / 0;705516;2018-04-04 20:39:15:162;;;;;;
-0.1604;1.4557;9.7887;3.1;35.337;NaN;0 / 0;706016;2018-04-04 20:39:15:662;;;;;;
-0.243;1.4605;9.6283;3.1;30.607;NaN;0 / 0;706515;2018-04-04 20:39:16:161;;;;;;
-0.4034;1.4533;9.566;3.1;29.865;NaN;0 / 0;707016;2018-04-04 20:39:16:662;;;;;;
-0.2813;1.4772;9.8342;3.1;33.689;NaN;0 / 0;707516;2018-04-04 20:39:17:162;;;;;;
-0.067;1.4664;9.9072;3.1;35.771;NaN;0 / 0;708016;2018-04-04 20:39:17:662;;;;;;
-0.1053;1.4449;9.7815;3.1;30.59;NaN;0 / 0;708516;2018-04-04 20:39:18:162;;;;;;
-0.2406;1.4293;9.6786;3.1;30.72;NaN;0 / 0;709015;2018-04-04 20:39:18:661;;;;;;
-0.3364;1.4593;9.6869;3.1;32.23;NaN;0 / 0;709516;2018-04-04 20:39:19:162;;;;;;
-0.3412;1.4617;9.7576;3.1;37.852;NaN;0 / 0;710016;2018-04-04 20:39:19:662;;;;;;
-0.2298;1.4389;9.7492;3.1;39.354;NaN;0 / 0;710516;2018-04-04 20:39:20:162;;;;;;
-0.3508;1.1983;9.7779;3.1;34.907;NaN;0 / 0;711016;2018-04-04 20:39:20:662;;;;;;
-0.2921;0.4322;9.8342;3.1;44.556;NaN;0 / 0;711515;2018-04-04 20:39:21:161;;;;;;
-1.2941;-0.5495;9.9515;3.1;50.693;NaN;0 / 0;712016;2018-04-04 20:39:21:662;;;;;;
-1.0953;0.249;9.8258;3.1;46.611;NaN;0 / 0;712516;2018-04-04 20:39:22:162;;;;;;
-0.8523;0.9589;9.6618;3.1;42.717;NaN;0 / 0;713016;2018-04-04 20:39:22:662;;;;;;
-0.838;1.0618;9.6558;3.1;41.829;NaN;0 / 0;713516;2018-04-04 20:39:23:162;;;;;;
-0.6776;1.0989;9.9288;3.1;44.096;NaN;0 / 0;714016;2018-04-04 20:39:23:662;;;;;;
-0.5088;1.0451;9.979;3.1;33.973;NaN;0 / 0;714516;2018-04-04 20:39:24:162;;;;;;
-0.5578;1.0259;9.7911;3.1;31.71;NaN;0 / 0;715016;2018-04-04 20:39:24:662;;;;;;
-0.735;1.1444;9.7145;3.1;31.494;NaN;0 / 0;715516;2018-04-04 20:39:25:162;;;;;;
-0.8045;1.1001;9.7336;3.1;35.938;NaN;0 / 0;716016;2018-04-04 20:39:25:662;;;;;;
-0.8272;1.0762;9.748;3.1;36.607;NaN;0 / 0;716516;2018-04-04 20:39:26:162;;;;;;
-0.7135;1.0882;9.8138;3.1;33.148;NaN;0 / 0;717016;2018-04-04 20:39:26:662;;;;;;
-0.6057;1.1504;9.8569;3.1;32.532;NaN;0 / 0;717515;2018-04-04 20:39:27:161;;;;;;
-0.5734;1.1349;9.9395;3.1;37.09;NaN;0 / 0;718016;2018-04-04 20:39:27:662;;;;;;
-0.7099;1.1097;9.827;3.1;32.736;NaN;0 / 0;718516;2018-04-04 20:39:28:162;;;;;;
-0.8511;1.0738;9.5876;3.1;47.113;NaN;0 / 0;719016;2018-04-04 20:39:28:662;;;;;;
-0.8152;1.1169;9.7803;3.1;32.443;NaN;0 / 0;719516;2018-04-04 20:39:29:162;;;;;;
-0.7147;1.1648;9.8785;3.1;45.937;NaN;0 / 0;720016;2018-04-04 20:39:29:662;;;;;;
-0.6153;1.1768;9.8138;3.1;53.431;NaN;0 / 0;720515;2018-04-04 20:39:30:161;;;;;;
-0.5351;1.0965;9.8701;3.1;52.469;NaN;0 / 0;721016;2018-04-04 20:39:30:662;;;;;;
-0.5028;1.063;9.8019;3.1;36.659;NaN;0 / 0;721516;2018-04-04 20:39:31:162;;;;;;
-0.6105;1.1061;9.6594;3.1;35.995;NaN;0 / 0;722016;2018-04-04 20:39:31:662;;;;;;
-0.7027;1.0989;9.669;3.1;49.545;NaN;0 / 0;722516;2018-04-04 20:39:32:162;;;;;;
-0.7254;1.1504;9.8521;3.1;48.388;NaN;0 / 0;723016;2018-04-04 20:39:32:662;;;;;;
-0.5231;1.1085;9.8402;3.1;39.409;NaN;0 / 0;723516;2018-04-04 20:39:33:162;;;;;;
-0.3184;1.0331;9.754;3.1;36.817;NaN;0 / 0;724015;2018-04-04 20:39:33:661;;;;;;
-0.2885;1.0606;9.833;3.1;35.331;NaN;0 / 0;724516;2018-04-04 20:39:34:162;;;;;;
-0.431;1.1624;9.8869;3.1;32.547;NaN;0 / 0;725016;2018-04-04 20:39:34:662;;;;;;
-0.6021;1.1408;9.8031;3.1;35.056;NaN;0 / 0;725516;2018-04-04 20:39:35:162;;;;;;
-0.7386;1.1061;9.6546;3.1;40.681;NaN;0 / 0;726016;2018-04-04 20:39:35:662;;;;;;
-0.6979;1.1337;9.7133;3.1;48.059;NaN;0 / 0;726515;2018-04-04 20:39:36:161;;;;;;
-0.5136;1.1145;9.8533;3.1;50.466;NaN;0 / 0;727016;2018-04-04 20:39:36:662;;;;;;
-0.3029;1.0511;9.8354;3.1;52.502;NaN;0 / 0;727516;2018-04-04 20:39:37:162;;;;;;
-0.3412;1.093;9.748;3.1;44.546;NaN;0 / 0;728016;2018-04-04 20:39:37:662;;;;;;
-0.4465;1.1265;9.8186;3.1;44.537;NaN;0 / 0;728516;2018-04-04 20:39:38:162;;;;;;
-0.5818;1.1097;9.7779;3.1;53.511;NaN;0 / 0;729015;2018-04-04 20:39:38:661;;;;;;
-0.5806;1.1217;9.7636;3.1;47.229;NaN;0 / 0;729516;2018-04-04 20:39:39:162;;;;;;
-0.3807;1.148;9.8545;3.1;58.048;NaN;0 / 0;730016;2018-04-04 20:39:39:662;;;;;;
-0.3807;1.1169;9.9192;3.1;35.795;NaN;0 / 0;730516;2018-04-04 20:39:40:162;;;;;;
-0.31;1.1073;9.8258;3.1;35.856;NaN;0 / 0;731016;2018-04-04 20:39:40:662;;;;;;
-0.3484;1.081;9.7288;3.1;41.194;NaN;0 / 0;731515;2018-04-04 20:39:41:161;;;;;;
-0.5148;1.1588;9.8474;3.1;44.335;NaN;0 / 0;732016;2018-04-04 20:39:41:662;;;;;;
-0.7398;1.1732;9.8821;3.1;37.327;NaN;0 / 0;732516;2018-04-04 20:39:42:162;;;;;;
-0.9864;1.1899;9.5864;3.1;44.027;NaN;0 / 0;733016;2018-04-04 20:39:42:662;;;;;;
-0.8116;1.2522;9.7133;3.1;43.562;NaN;0 / 0;733516;2018-04-04 20:39:43:162;;;;;;
-0.6177;1.221;9.8593;3.1;36.487;NaN;0 / 0;734016;2018-04-04 20:39:43:662;;;;;;
-0.6381;1.2534;9.8306;3.1;40.38;NaN;0 / 0;734516;2018-04-04 20:39:44:162;;;;;;
-0.662;1.1564;9.8474;3.1;38.743;NaN;0 / 0;735016;2018-04-04 20:39:44:662;;;;;;
-0.7518;1.1935;9.7205;3.1;32.986;NaN;0 / 0;735516;2018-04-04 20:39:45:162;;;;;;
-1.0618;1.3036;9.7324;3.1;36.815;NaN;0 / 0;736016;2018-04-04 20:39:45:662;;;;;;
-1.1588;1.3144;9.7791;3.1;33.889;NaN;0 / 0;736516;2018-04-04 20:39:46:162;;;;;;
-1.0008;1.2019;9.6343;3.1;42.413;NaN;0 / 0;737016;2018-04-04 20:39:46:662;;;;;;
-0.7242;1.1396;9.7408;3.1;39.244;NaN;0 / 0;737516;2018-04-04 20:39:47:162;;;;;;
-0.5219;1.2318;9.918;3.1;34.212;NaN;0 / 0;738016;2018-04-04 20:39:47:662;;;;;;
-0.6153;1.3012;9.9707;3.1;35.971;NaN;0 / 0;738516;2018-04-04 20:39:48:162;;;;;;
-0.9601;1.2055;9.6271;3.1;39.194;NaN;0 / 0;739016;2018-04-04 20:39:48:662;;;;;;
-1.227;1.1851;9.4367;3.1;44.414;NaN;0 / 0;739516;2018-04-04 20:39:49:162;;;;;;
-1.087;1.3072;9.8701;3.1;43.689;NaN;0 / 0;740016;2018-04-04 20:39:49:662;;;;;;
-0.8212;1.3001;9.997;3.1;44.57;NaN;0 / 0;740516;2018-04-04 20:39:50:162;;;;;;
-0.6165;1.1372;9.7648;3.1;37.905;NaN;0 / 0;741016;2018-04-04 20:39:50:662;;;;;;
-0.6452;1.1492;9.7624;3.1;38.967;NaN;0 / 0;741516;2018-04-04 20:39:51:162;;;;;;
-0.7793;1.2055;9.8677;3.1;42.25;NaN;0 / 0;742016;2018-04-04 20:39:51:662;;;;;;
-0.9409;1.2426;9.8378;3.1;45.717;NaN;0 / 0;742516;2018-04-04 20:39:52:162;;;;;;
-1.0475;1.1875;9.7109;3.1;39.167;NaN;0 / 0;743016;2018-04-04 20:39:52:662;;;;;;
-0.9673;1.1528;9.6726;3.1;40.007;NaN;0 / 0;743515;2018-04-04 20:39:53:161;;;;;;
-0.7386;1.2091;9.8821;3.1;34.957;NaN;0 / 0;744016;2018-04-04 20:39:53:662;;;;;;
-0.6069;1.2426;10.0365;3.1;41.912;NaN;0 / 0;744516;2018-04-04 20:39:54:162;;;;;;
-0.6345;1.1791;9.7971;3.1;41.242;NaN;0 / 0;745016;2018-04-04 20:39:54:662;;;;;;
-0.8763;1.1696;9.6127;3.1;42.89;NaN;0 / 0;745516;2018-04-04 20:39:55:162;;;;;;
-1.0594;1.2354;9.7252;3.1;44.325;NaN;0 / 0;746016;2018-04-04 20:39:55:662;;;;;;
-1.002;1.2222;9.8055;3.1;37.591;NaN;0 / 0;746516;2018-04-04 20:39:56:162;;;;;;
-0.7626;1.2785;9.839;3.1;52.524;NaN;0 / 0;747016;2018-04-04 20:39:56:662;;;;;;
-0.6381;1.2366;9.821;3.1;40.064;NaN;0 / 0;747516;2018-04-04 20:39:57:162;;;;;;
-0.6632;1.2019;9.578;3.1;34.483;NaN;0 / 0;748015;2018-04-04 20:39:57:661;;;;;;
0.0096;2.3655;11.6238;3.1;50.108;NaN;0 / 0;748516;2018-04-04 20:39:58:162;;;;;;
-4.0043;8.1858;2.5618;3.1;58.7;NaN;0 / 0;749016;2018-04-04 20:39:58:662;;;;;;
-0.4992;9.8749;2.5007;3.1;45.225;NaN;0 / 0;749516;2018-04-04 20:39:59:162;;;;;;
-2.1261;8.6203;3.3495;0;61.109;NaN;0 / 0;750016;2018-04-04 20:39:59:662;;;;;;
2.7102;7.8937;5.0206;3.1;55.085;NaN;0 / 0;750516;2018-04-04 20:40:00:162;;;;;;
0.3962;-1.3958;8.9052;3.1;63.89;NaN;0 / 0;751016;2018-04-04 20:40:00:662;;;;;;
-3.9181;-1.5981;9.566;3.1;47.92;NaN;0 / 0;751516;2018-04-04 20:40:01:162;;;;;;
-2.8455;-1.4293;2.7066;3.1;54.29;NaN;0 / 0;752016;2018-04-04 20:40:01:662;;;;;;
-1.1492;-9.4643;5.2194;3.1;55.649;NaN;0 / 0;752516;2018-04-04 20:40:02:162;;;;;;
7.8494;-2.3343;6.183;3.1;47.578;NaN;0 / 0;753016;2018-04-04 20:40:02:662;;;;;;
5.3941;-2.6037;7.0545;3.1;45.615;NaN;0 / 0;753515;2018-04-04 20:40:03:161;;;;;;
3.7146;-0.6752;9.8138;3.1;50.886;NaN;0 / 0;754016;2018-04-04 20:40:03:662;;;;;;
-1.1037;1.4832;9.183;3.1;44.878;NaN;0 / 0;754515;2018-04-04 20:40:04:161;;;;;;
-2.3451;4.8207;8.0996;3.1;48.846;NaN;0 / 0;755016;2018-04-04 20:40:04:662;;;;;;
-2.46;4.3227;9.0297;3.1;47.279;NaN;0 / 0;755516;2018-04-04 20:40:05:162;;;;;;
-1.7011;4.7178;7.9942;3.1;40.447;NaN;0 / 0;756016;2018-04-04 20:40:05:662;;;;;;
-1.2905;4.4173;9.0046;3.1;40.026;NaN;0 / 0;756515;2018-04-04 20:40:06:161;;;;;;
-1.6161;4.5466;8.8442;3.1;40.018;NaN;0 / 0;757016;2018-04-04 20:40:06:662;;;;;;
-1.7526;4.2078;8.8214;3.1;38.684;NaN;0 / 0;757515;2018-04-04 20:40:07:161;;;;;;
-1.5167;4.0833;8.7819;3.1;38.828;NaN;0 / 0;758016;2018-04-04 20:40:07:662;;;;;;
-1.1121;2.9532;9.4308;3.1;43.384;NaN;0 / 0;758516;2018-04-04 20:40:08:162;;;;;;
-1.1097;2.715;9.159;3.1;42.469;NaN;0 / 0;759016;2018-04-04 20:40:08:662;;;;;;
-1.3898;2.0877;9.505;3.1;42.78;NaN;0 / 0;759516;2018-04-04 20:40:09:162;;;;;;
-1.9872;2.8096;9.1889;3.1;42.098;NaN;0 / 0;760016;2018-04-04 20:40:09:662;;;;;;
