sep=;
ACCELEROMETER X (m/s²);ACCELEROMETER Y (m/s²);ACCELEROMETER Z (m/s²);SOUND LEVEL (dB);LOCATION Latitude : ;LOCATION Longitude : ;LOCATION Altitude ( m);LOCATION Altitude-google ( m);LOCATION Speed ( Kmh);LOCATION Accuracy ( m);LOCATION ORIENTATION (°);Satellites in range;Time since start in ms ;YYYY-MO-DD HH-MI-SS_SSS
-0.0329;0.486;9.5541;0.0;;;;NaN;;;;0 / 0;7;2018-04-04 20:27:22:573
-0.0311;0.3089;9.5164;0.0;;;;NaN;;;;0 / 0;506;2018-04-04 20:27:23:072
0.0215;0.2586;9.6971;0.0;;;;NaN;;;;0 / 0;1007;2018-04-04 20:27:23:573
-0.0114;0.4441;9.8581;0.0;;;;NaN;;;;0 / 0;1506;2018-04-04 20:27:24:072
-0.0557;0.6458;9.5606;0.0;;;;NaN;;;;0 / 0;2007;2018-04-04 20:27:24:573
-0.0443;0.7763;9.8599;0.0;;;;NaN;;;;0 / 0;2507;2018-04-04 20:27:25:073
6.0E-4;0.6165;9.9012;0.0;;;;NaN;;;;0 / 0;3008;2018-04-04 20:27:25:574
0.073;0.2143;9.5463;0.0;;;;NaN;;;;0 / 0;3506;2018-04-04 20:27:26:072
0.1077;0.0443;9.5319;0.0;;;;NaN;;;;0 / 0;4006;2018-04-04 20:27:26:572
0.012;0.1389;9.7109;0.0;;;;NaN;;;;0 / 0;4506;2018-04-04 20:27:27:072
-0.0521;0.4399;9.7252;0.0;;;;NaN;;;;0 / 0;5006;2018-04-04 20:27:27:572
0.0048;0.6901;9.5804;0.0;;;;NaN;;;;0 / 0;5506;2018-04-04 20:27:28:072
0.0377;0.6746;9.7121;0.0;;;;NaN;;;;0 / 0;6006;2018-04-04 20:27:28:572
-0.018;0.4322;9.7905;0.0;;;;NaN;;;;0 / 0;6506;2018-04-04 20:27:29:072
-0.0359;0.2891;9.7013;0.0;;;;NaN;;;;0 / 0;7006;2018-04-04 20:27:29:572
-0.0227;0.3454;9.5864;0.0;;;;NaN;;;;0 / 0;7506;2018-04-04 20:27:30:072
-0.0126;0.419;9.5816;0.0;;;;NaN;;;;0 / 0;8006;2018-04-04 20:27:30:572
0.0078;0.5866;9.6869;0.0;;;;NaN;;;;0 / 0;8507;2018-04-04 20:27:31:073
-0.0042;0.6853;9.7151;0.0;;;;NaN;;;;0 / 0;9006;2018-04-04 20:27:31:572
0.015;0.6387;9.7229;0.0;;;;NaN;;;;0 / 0;9507;2018-04-04 20:27:32:073
-0.003;0.4501;9.7606;0.0;;;;NaN;;;;0 / 0;10006;2018-04-04 20:27:32:572
0.003;0.2789;9.6121;0.0;;;;NaN;;;;0 / 0;10506;2018-04-04 20:27:33:072
-0.0221;0.3406;9.4846;0.0;;;;NaN;;;;0 / 0;11006;2018-04-04 20:27:33:572
-0.0341;0.51;9.7157;0.0;;;;NaN;;;;0 / 0;11506;2018-04-04 20:27:34:072
-0.0329;0.5884;9.812;0.0;;;;NaN;;;;0 / 0;12006;2018-04-04 20:27:34:572
-0.0096;0.6955;9.6558;0.0;;;;NaN;;;;0 / 0;12506;2018-04-04 20:27:35:072
0.0096;0.6446;9.7438;0.0;;;;NaN;;;;0 / 0;13006;2018-04-04 20:27:35:572
-0.012;0.4758;9.7761;0.0;;;;NaN;;;;0 / 0;13506;2018-04-04 20:27:36:072
-0.0024;0.2442;9.6211;0.0;;;;NaN;;;;0 / 0;14006;2018-04-04 20:27:36:572
0.0239;0.2286;9.584;0.0;;;;NaN;;;;0 / 0;14506;2018-04-04 20:27:37:072
0.0108;0.4519;9.6444;0.0;;;;NaN;;;;0 / 0;15006;2018-04-04 20:27:37:572
-6.0E-4;0.668;9.6373;0.0;;;;NaN;;;;0 / 0;15507;2018-04-04 20:27:38:073
-0.0156;0.7638;9.6277;0.0;;;;NaN;;;;0 / 0;16007;2018-04-04 20:27:38:573
0.006;0.5614;9.7288;0.0;;;;NaN;;;;0 / 0;16508;2018-04-04 20:27:39:074
-0.0024;0.492;9.7839;0.0;;;;NaN;;;;0 / 0;17006;2018-04-04 20:27:39:572
0.0012;0.2592;9.7264;0.0;;;;NaN;;;;0 / 0;17506;2018-04-04 20:27:40:072
-0.0036;0.3669;9.5882;0.0;;;;NaN;;;;0 / 0;18006;2018-04-04 20:27:40:572
-0.0084;0.5387;9.496;0.0;;;;NaN;;;;0 / 0;18507;2018-04-04 20:27:41:073
0.0126;0.7021;9.681;0.0;;;;NaN;;;;0 / 0;19007;2018-04-04 20:27:41:573
0.0036;0.7069;9.8246;0.0;;;;NaN;;;;0 / 0;19507;2018-04-04 20:27:42:073
-0.0084;0.5722;9.7624;0.0;;;;NaN;;;;0 / 0;20006;2018-04-04 20:27:42:572
-0.0066;0.3944;9.7139;0.0;;;;NaN;;;;0 / 0;20506;2018-04-04 20:27:43:072
0.0156;0.2508;9.648;0.0;;;;NaN;;;;0 / 0;21006;2018-04-04 20:27:43:572
-0.0317;0.2729;9.5678;0.0;;;;NaN;;;;0 / 0;21506;2018-04-04 20:27:44:072
-0.0209;0.5297;9.6253;0.0;;;;NaN;;;;0 / 0;22006;2018-04-04 20:27:44:572
0.0138;0.7943;9.6935;0.0;;;;NaN;;;;0 / 0;22506;2018-04-04 20:27:45:072
0.015;0.8086;9.7719;0.0;;;;NaN;;;;0 / 0;23006;2018-04-04 20:27:45:572
-0.0305;0.507;9.7199;0.0;;;;NaN;;;;0 / 0;23506;2018-04-04 20:27:46:072
0.0054;0.2687;9.6738;0.0;;;;NaN;;;;0 / 0;24006;2018-04-04 20:27:46:572
-0.0299;0.167;9.5624;0.0;;;;NaN;;;;0 / 0;24507;2018-04-04 20:27:47:073
0.0479;0.325;9.7085;0.0;;;;NaN;;;;0 / 0;25006;2018-04-04 20:27:47:572
-0.0383;0.9014;10.0096;0.0;;;;NaN;;;;0 / 0;25506;2018-04-04 20:27:48:072
-0.0407;0.6165;9.5876;0.0;;;;NaN;;;;0 / 0;26006;2018-04-04 20:27:48:572
-0.0042;0.7446;9.6552;0.0;;;;NaN;;;;0 / 0;26506;2018-04-04 20:27:49:072
0.0341;0.3789;9.8336;0.0;;;;NaN;;;;0 / 0;27006;2018-04-04 20:27:49:572
-0.0245;0.4902;9.6361;0.0;;;;NaN;;;;0 / 0;27507;2018-04-04 20:27:50:073
0.2149;0.6512;9.4218;0.0;;;;NaN;;;;0 / 0;28006;2018-04-04 20:27:50:572
-0.6692;0.7667;8.746;0.0;;;;NaN;;;;0 / 0;28506;2018-04-04 20:27:51:072
0.0766;0.4513;9.8174;0.0;;;;NaN;;;;0 / 0;29007;2018-04-04 20:27:51:573
-0.3891;1.5473;8.9519;0.0;;;;NaN;;;;0 / 0;29507;2018-04-04 20:27:52:073
-1.567;2.2206;8.2582;0.0;;;;NaN;;;;0 / 0;30007;2018-04-04 20:27:52:573
0.0425;0.3142;9.6037;0.0;;;;NaN;;;;0 / 0;30506;2018-04-04 20:27:53:072
-0.2693;0.0521;9.7707;0.0;;;;NaN;;;;0 / 0;31007;2018-04-04 20:27:53:573
0.0952;0.2999;9.7001;0.0;;;;NaN;;;;0 / 0;31506;2018-04-04 20:27:54:072
0.6859;0.9182;10.334;0.0;;;;NaN;;;;0 / 0;32006;2018-04-04 20:27:54:572
0.1149;0.4088;9.8378;0.0;;;;NaN;;;;0 / 0;32506;2018-04-04 20:27:55:072
-0.1718;0.5537;9.5152;0.0;;;;NaN;;;;0 / 0;33006;2018-04-04 20:27:55:572
-0.337;0.6422;9.5355;0.0;;;;NaN;;;;0 / 0;33506;2018-04-04 20:27:56:072
0.0126;0.0587;9.9443;0.0;;;;NaN;;;;0 / 0;34007;2018-04-04 20:27:56:573
0.2514;0.316;9.9665;0.0;;;;NaN;;;;0 / 0;34506;2018-04-04 20:27:57:072
-0.079;0.4663;9.5343;0.0;;;;NaN;;;;0 / 0;35006;2018-04-04 20:27:57:572
0.4052;0.8116;9.5086;0.0;;;;NaN;;;;0 / 0;35507;2018-04-04 20:27:58:073
-0.0982;0.2604;9.7558;0.0;;;;NaN;;;;0 / 0;36007;2018-04-04 20:27:58:573
0.2921;0.5118;9.9754;0.0;;;;NaN;;;;0 / 0;36507;2018-04-04 20:27:59:073
-0.1059;0.8655;9.481;0.0;;;;NaN;;;;0 / 0;37007;2018-04-04 20:27:59:573
-1.0092;-1.0157;9.505;0.0;;;;NaN;;;;0 / 0;37507;2018-04-04 20:28:00:073
-2.8395;-2.976;9.0375;0.0;;;;NaN;;;;0 / 0;38006;2018-04-04 20:28:00:572
2.2045;0.5495;9.8904;0.0;;;;NaN;;;;0 / 0;38506;2018-04-04 20:28:01:072
1.1768;0.1832;4.276;0.0;;;;NaN;;;;0 / 0;39006;2018-04-04 20:28:01:572
0.161;0.1341;9.8629;0.0;;;;NaN;;;;0 / 0;39506;2018-04-04 20:28:02:072
0.0664;0.6147;9.6887;0.0;;;;NaN;;;;0 / 0;40006;2018-04-04 20:28:02:572
-0.0491;0.4609;9.5738;0.0;;;;NaN;;;;0 / 0;40506;2018-04-04 20:28:03:072
0.5806;0.2215;10.559;0.0;;;;NaN;;;;0 / 0;41006;2018-04-04 20:28:03:572
-0.0485;0.899;9.3793;0.0;;;;NaN;;;;0 / 0;41507;2018-04-04 20:28:04:073
0.015;0.3352;9.5786;0.0;;;;NaN;;;;0 / 0;42006;2018-04-04 20:28:04:572
-0.006;0.4148;9.5547;0.0;;;;NaN;;;;0 / 0;42506;2018-04-04 20:28:05:072
0.0838;0.5944;9.584;0.0;;;;NaN;;;;0 / 0;43006;2018-04-04 20:28:05:572
0.1413;0.7919;9.7324;0.0;;;;NaN;;;;0 / 0;43507;2018-04-04 20:28:06:073
0.1586;0.817;9.8354;0.0;;;;NaN;;;;0 / 0;44006;2018-04-04 20:28:06:572
0.0718;0.5878;9.7342;0.0;;;;NaN;;;;0 / 0;44506;2018-04-04 20:28:07:072
-0.0323;0.3011;9.5397;0.0;;;;NaN;;;;0 / 0;45007;2018-04-04 20:28:07:573
-0.0587;0.2322;9.663;0.0;;;;NaN;;;;0 / 0;45507;2018-04-04 20:28:08:073
-0.0114;0.413;9.7031;0.0;;;;NaN;;;;0 / 0;46009;2018-04-04 20:28:08:575
0.1389;0.7314;9.7252;0.0;;;;NaN;;;;0 / 0;46507;2018-04-04 20:28:09:073
0.1377;0.7829;9.7342;0.0;;;;NaN;;;;0 / 0;47006;2018-04-04 20:28:09:572
0.1395;0.8033;9.7528;0.0;;;;NaN;;;;0 / 0;47507;2018-04-04 20:28:10:073
0.0018;0.3262;9.5738;0.0;;;;NaN;;;;0 / 0;48007;2018-04-04 20:28:10:573
-0.0916;0.1371;9.569;0.0;;;;NaN;;;;0 / 0;48506;2018-04-04 20:28:11:072
-0.0359;0.2149;9.6025;0.0;;;;NaN;;;;0 / 0;49006;2018-04-04 20:28:11:572
0.0694;0.568;9.6917;0.0;;;;NaN;;;;0 / 0;49506;2018-04-04 20:28:12:072
0.167;0.8679;9.7636;0.0;;;;NaN;;;;0 / 0;50006;2018-04-04 20:28:12:572
0.1808;0.9224;9.6851;0.0;;;;NaN;;;;0 / 0;50506;2018-04-04 20:28:13:072
0.1071;0.6991;9.6301;0.0;;;;NaN;;;;0 / 0;51007;2018-04-04 20:28:13:573
-0.0425;0.2729;9.7145;0.0;;;;NaN;;;;0 / 0;51507;2018-04-04 20:28:14:073
-0.1024;0.1335;9.5415;0.0;;;;NaN;;;;0 / 0;52007;2018-04-04 20:28:14:573
-0.006;0.3382;9.575;0.0;;;;NaN;;;;0 / 0;52506;2018-04-04 20:28:15:072
0.1562;0.595;9.8312;0.0;;;;NaN;;;;0 / 0;53008;2018-04-04 20:28:15:574
0.2011;0.8505;9.7785;0.0;;;;NaN;;;;0 / 0;53506;2018-04-04 20:28:16:072
0.0928;0.7578;9.5475;0.0;;;;NaN;;;;0 / 0;54006;2018-04-04 20:28:16:572
0.0036;0.4142;9.7588;0.0;;;;NaN;;;;0 / 0;54506;2018-04-04 20:28:17:072
-0.0323;0.1879;9.8138;0.0;;;;NaN;;;;0 / 0;55007;2018-04-04 20:28:17:573
-0.0485;0.1682;9.8067;0.0;;;;NaN;;;;0 / 0;55506;2018-04-04 20:28:18:072
0.0132;0.422;9.642;0.0;;;;NaN;;;;0 / 0;56006;2018-04-04 20:28:18:572
0.1143;0.7308;9.7977;0.0;;;;NaN;;;;0 / 0;56506;2018-04-04 20:28:19:072
0.1754;0.8553;9.6684;0.0;;;;NaN;;;;0 / 0;57006;2018-04-04 20:28:19:572
0.1407;0.75;9.6534;0.0;;;;NaN;;;;0 / 0;57506;2018-04-04 20:28:20:072
-0.0084;0.3729;9.8013;0.0;;;;NaN;;;;0 / 0;58006;2018-04-04 20:28:20:572
-0.0664;0.1538;9.6648;0.0;;;;NaN;;;;0 / 0;58506;2018-04-04 20:28:21:072
-0.0377;0.243;9.5277;0.0;;;;NaN;;;;0 / 0;59006;2018-04-04 20:28:21:572
0.1053;0.5788;9.5511;0.0;;;;NaN;;;;0 / 0;59506;2018-04-04 20:28:22:072
0.146;0.8308;9.7636;0.0;;;;NaN;;;;0 / 0;60007;2018-04-04 20:28:22:573
0.1658;0.8296;9.7659;0.0;;;;NaN;;;;0 / 0;60507;2018-04-04 20:28:23:073
0.0634;0.5405;9.648;0.0;;;;NaN;;;;0 / 0;61006;2018-04-04 20:28:23:572
0.0102;0.2376;9.8055;0.0;;;;NaN;;;;0 / 0;61506;2018-04-04 20:28:24:072
-0.0347;0.2741;9.6109;0.0;;;;NaN;;;;0 / 0;62006;2018-04-04 20:28:24:572
0.1041;0.568;9.5056;0.0;;;;NaN;;;;0 / 0;62506;2018-04-04 20:28:25:072
0.1329;0.8745;9.599;0.0;;;;NaN;;;;0 / 0;63006;2018-04-04 20:28:25:572
0.1975;0.832;9.8803;0.0;;;;NaN;;;;0 / 0;63507;2018-04-04 20:28:26:073
0.1179;0.568;9.9006;0.0;;;;NaN;;;;0 / 0;64007;2018-04-04 20:28:26:573
0.0563;0.2789;9.5792;0.0;;;;NaN;;;;0 / 0;64506;2018-04-04 20:28:27:072
-0.1041;0.2113;9.7779;0.0;;;;NaN;;;;0 / 0;65006;2018-04-04 20:28:27:572
-0.1287;0.504;9.5864;0.0;;;;NaN;;;;0 / 0;65507;2018-04-04 20:28:28:073
0.0587;0.6117;9.5517;0.0;;;;NaN;;;;0 / 0;66007;2018-04-04 20:28:28:573
0.0018;0.9726;9.6127;0.0;;;;NaN;;;;0 / 0;66506;2018-04-04 20:28:29:072
-0.4968;0.51;9.6349;0.0;;;;NaN;;;;0 / 0;67006;2018-04-04 20:28:29:572
-0.2179;0.2879;9.3984;0.0;;;;NaN;;;;0 / 0;67506;2018-04-04 20:28:30:072
-0.0042;0.3035;9.6648;0.0;;;;NaN;;;;0 / 0;68006;2018-04-04 20:28:30:572
-0.009;0.2346;9.5744;0.0;;;;NaN;;;;0 / 0;68507;2018-04-04 20:28:31:073
0.0018;0.431;9.6229;0.0;;;;NaN;;;;0 / 0;69007;2018-04-04 20:28:31:573
0.0192;0.7015;9.3284;0.0;;;;NaN;;;;0 / 0;69507;2018-04-04 20:28:32:073
0.0892;0.7248;9.4858;0.0;;;;NaN;;;;0 / 0;70007;2018-04-04 20:28:32:573
0.0712;0.5549;9.8138;0.0;;;;NaN;;;;0 / 0;70508;2018-04-04 20:28:33:074
-0.003;0.4519;9.9186;0.0;;;;NaN;;;;0 / 0;71006;2018-04-04 20:28:33:572
-0.0844;0.4549;9.6007;0.0;;;;NaN;;;;0 / 0;71506;2018-04-04 20:28:34:072
-0.1071;0.3322;9.5319;0.0;;;;NaN;;;;0 / 0;72006;2018-04-04 20:28:34:572
-0.1951;0.0658;9.8952;0.0;;;;NaN;;;;0 / 0;72507;2018-04-04 20:28:35:073
-0.0144;0.7027;9.3733;0.0;;;;NaN;;;;0 / 0;73007;2018-04-04 20:28:35:573
0.2963;0.8009;9.5636;0.0;;;;NaN;;;;0 / 0;73506;2018-04-04 20:28:36:072
-0.0377;0.6033;9.6343;0.0;;;;NaN;;;;0 / 0;74007;2018-04-04 20:28:36:573
-0.1903;0.489;9.4984;0.0;;;;NaN;;;;0 / 0;74507;2018-04-04 20:28:37:073
-0.0617;0.2023;9.6582;0.0;;;;NaN;;;;0 / 0;75008;2018-04-04 20:28:37:574
-0.1335;0.2873;9.5565;0.0;;;;NaN;;;;0 / 0;75506;2018-04-04 20:28:38:072
0.2077;0.3783;9.6211;0.0;;;;NaN;;;;0 / 0;76007;2018-04-04 20:28:38:573
1.0355;2.2422;8.3911;0.0;;;;NaN;;;;0 / 0;76507;2018-04-04 20:28:39:073
0.7063;0.9307;9.6307;0.0;;;;NaN;;;;0 / 0;77007;2018-04-04 20:28:39:573
1.479;0.817;9.6989;0.0;;;;NaN;;;;0 / 0;77506;2018-04-04 20:28:40:072
-0.0832;0.4076;9.8055;0.0;;;;NaN;;;;0 / 0;78006;2018-04-04 20:28:40:572
-0.9996;0.8607;9.3966;0.0;;;;NaN;;;;0 / 0;78506;2018-04-04 20:28:41:072
-0.0359;0.3083;9.6576;0.0;;;;NaN;;;;0 / 0;79006;2018-04-04 20:28:41:572
0.0712;-0.2269;9.7121;0.0;;;;NaN;;;;0 / 0;79507;2018-04-04 20:28:42:073
-0.2789;0.7428;9.6798;0.0;;;;NaN;;;;0 / 0;80006;2018-04-04 20:28:42:572
0.2699;0.9361;9.6558;0.0;;;;NaN;;;;0 / 0;80506;2018-04-04 20:28:43:072
0.0748;0.7434;9.8845;0.0;;;;NaN;;;;0 / 0;81006;2018-04-04 20:28:43:572
-0.2502;-0.0533;10.0245;0.0;;;;NaN;;;;0 / 0;81506;2018-04-04 20:28:44:072
-0.0796;0.0772;9.6097;0.0;;;;NaN;;;;0 / 0;82007;2018-04-04 20:28:44:573
-0.067;0.2634;9.5092;0.0;;;;NaN;;;;0 / 0;82506;2018-04-04 20:28:45:072
-0.0066;0.4747;9.7241;0.0;;;;NaN;;;;0 / 0;83006;2018-04-04 20:28:45:572
0.1484;0.8003;9.5367;0.0;;;;NaN;;;;0 / 0;83506;2018-04-04 20:28:46:072
0.1496;0.9248;9.6415;0.0;;;;NaN;;;;0 / 0;84007;2018-04-04 20:28:46:573
0.0892;0.7111;9.8539;0.0;;;;NaN;;;;0 / 0;84506;2018-04-04 20:28:47:072
-0.0772;0.349;9.7749;0.0;;;;NaN;;;;0 / 0;85007;2018-04-04 20:28:47:573
-0.1065;0.2143;9.6043;0.0;;;;NaN;;;;0 / 0;85507;2018-04-04 20:28:48:073
-0.0323;0.3071;9.6409;0.0;;;;NaN;;;;0 / 0;86007;2018-04-04 20:28:48:573
0.0682;0.6129;9.6217;0.0;;;;NaN;;;;0 / 0;86507;2018-04-04 20:28:49:073
0.1742;0.8805;9.654;0.0;;;;NaN;;;;0 / 0;87006;2018-04-04 20:28:49:572
0.1532;0.8859;9.7312;0.0;;;;NaN;;;;0 / 0;87506;2018-04-04 20:28:50:072
-0.0479;0.5872;9.8007;0.0;;;;NaN;;;;0 / 0;88007;2018-04-04 20:28:50:573
-0.0132;0.2682;9.5972;0.0;;;;NaN;;;;0 / 0;88506;2018-04-04 20:28:51:072
0.0144;0.2364;9.484;0.0;;;;NaN;;;;0 / 0;89006;2018-04-04 20:28:51:572
-0.0497;0.4741;9.6031;0.0;;;;NaN;;;;0 / 0;89507;2018-04-04 20:28:52:073
0.0982;0.5914;9.7073;0.0;;;;NaN;;;;0 / 0;90006;2018-04-04 20:28:52:572
0.176;0.9517;9.7187;0.0;;;;NaN;;;;0 / 0;90506;2018-04-04 20:28:53:072
0.2292;0.9667;9.76;0.0;;;;NaN;;;;0 / 0;91007;2018-04-04 20:28:53:573
0.009;0.51;9.6798;0.0;;;;NaN;;;;0 / 0;91507;2018-04-04 20:28:54:073
-0.064;0.1634;9.584;0.0;;;;NaN;;;;0 / 0;92006;2018-04-04 20:28:54:572
-0.0479;0.2173;9.6265;0.0;;;;NaN;;;;0 / 0;92507;2018-04-04 20:28:55:073
0.0233;0.489;9.6325;0.0;;;;NaN;;;;0 / 0;93006;2018-04-04 20:28:55:572
0.1508;0.8481;9.5367;0.0;;;;NaN;;;;0 / 0;93506;2018-04-04 20:28:56:072
0.1389;0.8835;9.8988;0.0;;;;NaN;;;;0 / 0;94007;2018-04-04 20:28:56:573
0.1006;0.7638;9.8587;0.0;;;;NaN;;;;0 / 0;94506;2018-04-04 20:28:57:072
-0.0628;0.334;9.7606;0.0;;;;NaN;;;;0 / 0;95007;2018-04-04 20:28:57:573
-0.085;0.1012;9.5618;0.0;;;;NaN;;;;0 / 0;95507;2018-04-04 20:28:58:073
-0.012;0.3083;9.6426;0.0;;;;NaN;;;;0 / 0;96007;2018-04-04 20:28:58:573
0.0347;0.6195;9.6558;0.0;;;;NaN;;;;0 / 0;96507;2018-04-04 20:28:59:073
0.1006;0.8152;9.5864;0.0;;;;NaN;;;;0 / 0;97006;2018-04-04 20:28:59:572
0.161;0.8882;9.7145;0.0;;;;NaN;;;;0 / 0;97506;2018-04-04 20:29:00:072
0.1119;0.7213;9.8791;0.0;;;;NaN;;;;0 / 0;98006;2018-04-04 20:29:00:572
0.1113;0.5818;9.8515;0.0;;;;NaN;;;;0 / 0;98506;2018-04-04 20:29:01:072
-0.0826;0.1664;9.4966;0.0;;;;NaN;;;;0 / 0;99007;2018-04-04 20:29:01:573
-0.009;0.4184;9.5517;0.0;;;;NaN;;;;0 / 0;99506;2018-04-04 20:29:02:072
0.103;0.7643;9.7121;0.0;;;;NaN;;;;0 / 0;100007;2018-04-04 20:29:02:573
0.161;0.8882;9.6971;0.0;;;;NaN;;;;0 / 0;100506;2018-04-04 20:29:03:072
0.1185;0.7009;9.6468;0.0;;;;NaN;;;;0 / 0;101006;2018-04-04 20:29:03:572
-0.0114;0.3765;9.6887;0.0;;;;NaN;;;;0 / 0;101506;2018-04-04 20:29:04:072
-0.0646;0.2765;9.7019;0.0;;;;NaN;;;;0 / 0;102007;2018-04-04 20:29:04:573
0.0078;0.3921;9.6552;0.0;;;;NaN;;;;0 / 0;102507;2018-04-04 20:29:05:073
0.0605;0.5728;9.6367;0.0;;;;NaN;;;;0 / 0;103006;2018-04-04 20:29:05:572
0.0814;0.7446;9.6582;0.0;;;;NaN;;;;0 / 0;103506;2018-04-04 20:29:06:072
0.1047;0.7428;9.7402;0.0;;;;NaN;;;;0 / 0;104006;2018-04-04 20:29:06:572
0.0958;0.5758;9.7336;0.0;;;;NaN;;;;0 / 0;104506;2018-04-04 20:29:07:072
-0.0431;0.3723;9.5092;0.0;;;;NaN;;;;0 / 0;105006;2018-04-04 20:29:07:572
-0.079;0.2705;9.5583;0.0;;;;NaN;;;;0 / 0;105506;2018-04-04 20:29:08:072
-0.0311;0.3669;9.8462;0.0;;;;NaN;;;;0 / 0;106006;2018-04-04 20:29:08:572
0.1041;0.7081;9.7246;0.0;;;;NaN;;;;0 / 0;106506;2018-04-04 20:29:09:072
0.1437;0.7787;9.581;0.0;;;;NaN;;;;0 / 0;107006;2018-04-04 20:29:09:572
0.0664;0.5986;9.5648;0.0;;;;NaN;;;;0 / 0;107507;2018-04-04 20:29:10:073
-0.0054;0.3891;9.6133;0.0;;;;NaN;;;;0 / 0;108006;2018-04-04 20:29:10:572
-0.0168;0.3711;9.8312;0.0;;;;NaN;;;;0 / 0;108506;2018-04-04 20:29:11:072
-0.0054;0.3998;9.7264;0.0;;;;NaN;;;;0 / 0;109007;2018-04-04 20:29:11:573
0.0742;0.6297;9.5379;0.0;;;;NaN;;;;0 / 0;109506;2018-04-04 20:29:12:072
0.0892;0.7386;9.6744;0.0;;;;NaN;;;;0 / 0;110006;2018-04-04 20:29:12:572
0.0784;0.6524;9.7342;0.0;;;;NaN;;;;0 / 0;110506;2018-04-04 20:29:13:072
0.0257;0.5303;9.7043;0.0;;;;NaN;;;;0 / 0;111006;2018-04-04 20:29:13:572
-0.0353;0.3801;9.6313;0.0;;;;NaN;;;;0 / 0;111506;2018-04-04 20:29:14:072
-0.0245;0.2807;9.5738;0.0;;;;NaN;;;;0 / 0;112009;2018-04-04 20:29:14:575
0.0233;0.4555;9.5972;0.0;;;;NaN;;;;0 / 0;112507;2018-04-04 20:29:15:073
0.103;0.7452;9.7246;0.0;;;;NaN;;;;0 / 0;113006;2018-04-04 20:29:15:572
0.1161;0.7895;9.7636;0.0;;;;NaN;;;;0 / 0;113507;2018-04-04 20:29:16:073
0.0539;0.6524;9.6223;0.0;;;;NaN;;;;0 / 0;114007;2018-04-04 20:29:16:573
-0.0215;0.4292;9.6929;0.0;;;;NaN;;;;0 / 0;114507;2018-04-04 20:29:17:073
-0.0389;0.2861;9.7594;0.0;;;;NaN;;;;0 / 0;115007;2018-04-04 20:29:17:573
-0.0126;0.3681;9.6253;0.0;;;;NaN;;;;0 / 0;115506;2018-04-04 20:29:18:072
0.0132;0.5058;9.5493;0.0;;;;NaN;;;;0 / 0;116006;2018-04-04 20:29:18:572
0.0718;0.7386;9.6103;0.0;;;;NaN;;;;0 / 0;116506;2018-04-04 20:29:19:072
0.1365;0.8152;9.739;0.0;;;;NaN;;;;0 / 0;117006;2018-04-04 20:29:19:572
0.073;0.6015;9.8336;0.0;;;;NaN;;;;0 / 0;117507;2018-04-04 20:29:20:073
-0.0269;0.3466;9.6792;0.0;;;;NaN;;;;0 / 0;118006;2018-04-04 20:29:20:572
-0.0515;0.2939;9.6085;0.0;;;;NaN;;;;0 / 0;118507;2018-04-04 20:29:21:073
-0.0186;0.3262;9.5702;0.0;;;;NaN;;;;0 / 0;119007;2018-04-04 20:29:21:573
0.0569;0.5608;9.5834;0.0;;;;NaN;;;;0 / 0;119506;2018-04-04 20:29:22:072
0.1341;0.8194;9.572;0.0;;;;NaN;;;;0 / 0;120006;2018-04-04 20:29:22:572
0.1437;0.7991;9.6947;0.0;;;;NaN;;;;0 / 0;120506;2018-04-04 20:29:23:072
0.0862;0.6518;9.7252;0.0;;;;NaN;;;;0 / 0;121007;2018-04-04 20:29:23:573
-0.0215;0.2855;9.7905;0.0;;;;NaN;;;;0 / 0;121507;2018-04-04 20:29:24:073
-0.0455;0.2352;9.7797;0.0;;;;NaN;;;;0 / 0;122006;2018-04-04 20:29:24:572
0.0042;0.4238;9.5888;0.0;;;;NaN;;;;0 / 0;122506;2018-04-04 20:29:25:072
0.1077;0.7428;9.4972;0.0;;;;NaN;;;;0 / 0;123007;2018-04-04 20:29:25:573
0.0784;0.6333;9.6863;0.0;;;;NaN;;;;0 / 0;123506;2018-04-04 20:29:26:072
0.0652;0.589;9.7139;0.0;;;;NaN;;;;0 / 0;124006;2018-04-04 20:29:26:572
0.0539;0.5034;9.7187;0.0;;;;NaN;;;;0 / 0;124506;2018-04-04 20:29:27:072
-0.0036;0.3813;9.7839;0.0;;;;NaN;;;;0 / 0;125007;2018-04-04 20:29:27:573
-0.0269;0.3693;9.6043;0.0;;;;NaN;;;;0 / 0;125506;2018-04-04 20:29:28:072
0.0365;0.5477;9.5343;0.0;;;;NaN;;;;0 / 0;126007;2018-04-04 20:29:28:573
0.0976;0.6883;9.6851;0.0;;;;NaN;;;;0 / 0;126506;2018-04-04 20:29:29:072
0.0479;0.6381;9.7246;0.0;;;;NaN;;;;0 / 0;127006;2018-04-04 20:29:29:572
0.0605;0.5986;9.6373;0.0;;;;NaN;;;;0 / 0;127506;2018-04-04 20:29:30:072
0.0347;0.4615;9.7001;0.0;;;;NaN;;;;0 / 0;128006;2018-04-04 20:29:30:572
-0.0012;0.3944;9.7474;0.0;;;;NaN;;;;0 / 0;128507;2018-04-04 20:29:31:073
-0.0078;0.4417;9.7229;0.0;;;;NaN;;;;0 / 0;129006;2018-04-04 20:29:31:572
0.0652;0.6015;9.5457;0.0;;;;NaN;;;;0 / 0;129506;2018-04-04 20:29:32:072
0.0832;0.6823;9.599;0.0;;;;NaN;;;;0 / 0;130007;2018-04-04 20:29:32:573
0.073;0.5866;9.812;0.0;;;;NaN;;;;0 / 0;130507;2018-04-04 20:29:33:073
0.0257;0.5321;9.6456;0.0;;;;NaN;;;;0 / 0;131006;2018-04-04 20:29:33:572
0.0215;0.4752;9.7354;0.0;;;;NaN;;;;0 / 0;131506;2018-04-04 20:29:34:072
0.0209;0.4417;9.7941;0.0;;;;NaN;;;;0 / 0;132006;2018-04-04 20:29:34:572
0.009;0.4579;9.5241;0.0;;;;NaN;;;;0 / 0;132507;2018-04-04 20:29:35:073
0.0736;0.662;9.6043;0.0;;;;NaN;;;;0 / 0;133006;2018-04-04 20:29:35:572
0.0694;0.6608;9.6804;0.0;;;;NaN;;;;0 / 0;133506;2018-04-04 20:29:36:072
0.0156;0.5626;9.7127;0.0;;;;NaN;;;;0 / 0;134006;2018-04-04 20:29:36:572
0.0018;0.4022;9.6983;0.0;;;;NaN;;;;0 / 0;134507;2018-04-04 20:29:37:073
-0.0084;0.3711;9.6869;0.0;;;;NaN;;;;0 / 0;135007;2018-04-04 20:29:37:573
0.009;0.4022;9.657;0.0;;;;NaN;;;;0 / 0;135506;2018-04-04 20:29:38:072
0.0102;0.4824;9.5098;0.0;;;;NaN;;;;0 / 0;136006;2018-04-04 20:29:38:572
0.082;0.6512;9.648;0.0;;;;NaN;;;;0 / 0;136506;2018-04-04 20:29:39:072
0.0724;0.7063;9.8288;0.0;;;;NaN;;;;0 / 0;137006;2018-04-04 20:29:39:572
-0.0437;0.3909;9.7474;0.0;;;;NaN;;;;0 / 0;137506;2018-04-04 20:29:40:072
-0.6189;0.4016;9.6977;0.0;;;;NaN;;;;0 / 0;138008;2018-04-04 20:29:40:574
0.0275;0.2693;9.572;0.0;;;;NaN;;;;0 / 0;138506;2018-04-04 20:29:41:072
0.0479;0.2233;9.4505;0.0;;;;NaN;;;;0 / 0;139006;2018-04-04 20:29:41:572
-1.6227;-0.161;9.5068;0.0;;;;NaN;;;;0 / 0;139507;2018-04-04 20:29:42:073
-0.152;0.7183;9.42;0.0;;;;NaN;;;;0 / 0;140007;2018-04-04 20:29:42:573
-0.0622;0.4262;9.9491;0.0;;;;NaN;;;;0 / 0;140507;2018-04-04 20:29:43:073
0.4393;0.3537;9.9934;0.0;;;;NaN;;;;0 / 0;141006;2018-04-04 20:29:43:572
-0.0497;0.3944;9.7043;0.0;;;;NaN;;;;0 / 0;141506;2018-04-04 20:29:44:072
0.3849;0.3364;9.6283;0.0;;;;NaN;;;;0 / 0;142006;2018-04-04 20:29:44:572
0.2855;0.6404;9.5756;0.0;;;;NaN;;;;0 / 0;142506;2018-04-04 20:29:45:072
0.097;0.6303;9.6319;0.0;;;;NaN;;;;0 / 0;143013;2018-04-04 20:29:45:579
0.1191;0.2933;9.8198;0.0;;;;NaN;;;;0 / 0;143506;2018-04-04 20:29:46:072
0.2705;0.4699;9.7803;0.0;;;;NaN;;;;0 / 0;144007;2018-04-04 20:29:46:573
0.152;0.4292;9.5924;0.0;;;;NaN;;;;0 / 0;144507;2018-04-04 20:29:47:073
0.0359;0.2059;9.7169;0.0;;;;NaN;;;;0 / 0;145010;2018-04-04 20:29:47:576
-0.1191;0.0832;9.7366;0.0;;;;NaN;;;;0 / 0;145506;2018-04-04 20:29:48:072
0.0066;0.155;9.7839;0.0;;;;NaN;;;;0 / 0;146006;2018-04-04 20:29:48:572
0.0652;0.4226;9.7983;0.0;;;;NaN;;;;0 / 0;146507;2018-04-04 20:29:49:073
-0.1143;0.5974;9.9341;0.0;;;;NaN;;;;0 / 0;147006;2018-04-04 20:29:49:572
0.088;0.7769;9.4942;0.0;;;;NaN;;;;0 / 0;147506;2018-04-04 20:29:50:072
0.0054;0.4154;9.6594;0.0;;;;NaN;;;;0 / 0;148006;2018-04-04 20:29:50:572
0.0024;0.3962;9.7193;0.0;;;;NaN;;;;0 / 0;148506;2018-04-04 20:29:51:072
0.0431;0.4944;9.6403;0.0;;;;NaN;;;;0 / 0;149007;2018-04-04 20:29:51:573
0.0946;0.5986;9.6696;0.0;;;;NaN;;;;0 / 0;149507;2018-04-04 20:29:52:073
0.07;0.6111;9.7306;0.0;;;;NaN;;;;0 / 0;150007;2018-04-04 20:29:52:573
0.0605;0.5435;9.5888;0.0;;;;NaN;;;;0 / 0;150506;2018-04-04 20:29:53:072
-0.0245;0.3699;9.5277;0.0;;;;NaN;;;;0 / 0;151006;2018-04-04 20:29:53:572
-0.0958;0.3885;9.6678;0.0;;;;NaN;;;;0 / 0;151507;2018-04-04 20:29:54:073
0.0832;0.4669;9.7797;0.0;;;;NaN;;;;0 / 0;152006;2018-04-04 20:29:54:572
0.0497;0.6692;9.6355;0.0;;;;NaN;;;;0 / 0;152506;2018-04-04 20:29:55:072
0.0934;0.6267;9.7833;0.0;;;;NaN;;;;0 / 0;153006;2018-04-04 20:29:55:572
0.0652;0.5423;9.8593;0.0;;;;NaN;;;;0 / 0;153506;2018-04-04 20:29:56:072
-0.0156;0.2813;9.5738;0.0;;;;NaN;;;;0 / 0;154006;2018-04-04 20:29:56:572
-0.1065;0.2245;9.4433;0.0;;;;NaN;;;;0 / 0;154506;2018-04-04 20:29:57:072
0.0221;0.3645;9.6804;0.0;;;;NaN;;;;0 / 0;155006;2018-04-04 20:29:57:572
0.1317;0.6955;9.8007;0.0;;;;NaN;;;;0 / 0;155506;2018-04-04 20:29:58:072
0.1616;1.6161;9.6456;0.0;;;;NaN;;;;0 / 0;156006;2018-04-04 20:29:58:572
-0.1454;0.8051;9.6444;0.0;;;;NaN;;;;0 / 0;156506;2018-04-04 20:29:59:072
-0.0718;0.425;9.6953;0.0;;;;NaN;;;;0 / 0;157006;2018-04-04 20:29:59:572
-0.1532;-0.003;9.6582;0.0;;;;NaN;;;;0 / 0;157506;2018-04-04 20:30:00:072
-0.0784;0.1718;9.6223;0.0;;;;NaN;;;;0 / 0;158008;2018-04-04 20:30:00:574
-0.0126;0.6829;9.4314;0.0;;;;NaN;;;;0 / 0;158506;2018-04-04 20:30:01:072
0.1006;0.8392;9.6828;0.0;;;;NaN;;;;0 / 0;159007;2018-04-04 20:30:01:573
0.0934;0.9098;9.7516;0.0;;;;NaN;;;;0 / 0;159507;2018-04-04 20:30:02:073
0.0269;0.9643;9.8809;0.0;;;;NaN;;;;0 / 0;160007;2018-04-04 20:30:02:573
-0.0533;0.1101;9.7067;0.0;;;;NaN;;;;0 / 0;160506;2018-04-04 20:30:03:072
-0.1712;0.1778;9.4954;0.0;;;;NaN;;;;0 / 0;161006;2018-04-04 20:30:03:572
-0.1389;0.2915;9.6187;0.0;;;;NaN;;;;0 / 0;161506;2018-04-04 20:30:04:072
0.1287;0.6644;9.7235;0.0;;;;NaN;;;;0 / 0;162007;2018-04-04 20:30:04:573
0.2179;0.9146;9.5313;0.0;;;;NaN;;;;0 / 0;162506;2018-04-04 20:30:05:072
0.1454;0.7428;9.6444;0.0;;;;NaN;;;;0 / 0;163006;2018-04-04 20:30:05:572
0.419;0.6889;9.6043;0.0;;;;NaN;;;;0 / 0;163506;2018-04-04 20:30:06:072
-0.0551;0.3705;9.672;0.0;;;;NaN;;;;0 / 0;164006;2018-04-04 20:30:06:572
-0.0664;0.1873;9.6492;0.0;;;;NaN;;;;0 / 0;164506;2018-04-04 20:30:07:072
0.34;0.2478;9.5229;0.0;;;;NaN;;;;0 / 0;165006;2018-04-04 20:30:07:572
0.1592;-0.3885;9.6367;0.0;;;;NaN;;;;0 / 0;165506;2018-04-04 20:30:08:072
0.0976;0.7434;9.8462;0.0;;;;NaN;;;;0 / 0;166007;2018-04-04 20:30:08:573
-0.0048;0.4196;9.426;0.0;;;;NaN;;;;0 / 0;166507;2018-04-04 20:30:09:073
-0.1754;0.1873;9.7199;0.0;;;;NaN;;;;0 / 0;167006;2018-04-04 20:30:09:572
-0.2538;0.0599;9.7689;0.0;;;;NaN;;;;0 / 0;167506;2018-04-04 20:30:10:072
0.3095;0.3843;9.6079;0.0;;;;NaN;;;;0 / 0;168006;2018-04-04 20:30:10:572
-0.015;0.5369;9.5176;0.0;;;;NaN;;;;0 / 0;168507;2018-04-04 20:30:11:073
0.1071;0.5854;9.6702;0.0;;;;NaN;;;;0 / 0;169007;2018-04-04 20:30:11:573
-0.1341;2.1386;9.6881;0.0;;;;NaN;;;;0 / 0;169506;2018-04-04 20:30:12:072
0.0928;0.7368;9.8887;0.0;;;;NaN;;;;0 / 0;170007;2018-04-04 20:30:12:573
-0.0251;0.3496;9.6828;0.0;;;;NaN;;;;0 / 0;170507;2018-04-04 20:30:13:073
-0.0227;0.1987;9.6756;0.0;;;;NaN;;;;0 / 0;171007;2018-04-04 20:30:13:573
0.0599;0.5489;9.6666;0.0;;;;NaN;;;;0 / 0;171507;2018-04-04 20:30:14:073
0.5375;0.5243;9.6839;0.0;;;;NaN;;;;0 / 0;172006;2018-04-04 20:30:14:572
0.0712;0.6752;9.6055;0.0;;;;NaN;;;;0 / 0;172506;2018-04-04 20:30:15:072
0.0485;0.4747;9.7151;0.0;;;;NaN;;;;0 / 0;173007;2018-04-04 20:30:15:573
-0.0102;0.3885;9.7528;0.0;;;;NaN;;;;0 / 0;173506;2018-04-04 20:30:16:072
0.1389;0.4345;9.6582;0.0;;;;NaN;;;;0 / 0;174006;2018-04-04 20:30:16:572
-0.1071;0.5824;9.6115;0.0;;;;NaN;;;;0 / 0;174507;2018-04-04 20:30:17:073
0.2915;0.5327;9.6582;0.0;;;;NaN;;;;0 / 0;175016;2018-04-04 20:30:17:582
0.1149;0.5896;9.3362;0.0;;;;NaN;;;;0 / 0;175506;2018-04-04 20:30:18:072
0.094;0.6045;9.6564;0.0;;;;NaN;;;;0 / 0;176006;2018-04-04 20:30:18:572
0.2538;0.264;9.3512;0.0;;;;NaN;;;;0 / 0;176506;2018-04-04 20:30:19:072
0.0736;-0.1329;9.6349;0.0;;;;NaN;;;;0 / 0;177007;2018-04-04 20:30:19:573
0.4507;0.2909;9.2225;0.0;;;;NaN;;;;0 / 0;177507;2018-04-04 20:30:20:073
0.0138;0.7165;9.6157;0.0;;;;NaN;;;;0 / 0;178007;2018-04-04 20:30:20:573
0.0772;0.9307;9.4685;0.0;;;;NaN;;;;0 / 0;178506;2018-04-04 20:30:21:072
0.0712;0.6357;9.8067;0.0;;;;NaN;;;;0 / 0;179006;2018-04-04 20:30:21:572
-0.0622;0.4082;9.7749;0.0;;;;NaN;;;;0 / 0;179506;2018-04-04 20:30:22:072
-0.0311;0.319;9.6037;0.0;;;;NaN;;;;0 / 0;180006;2018-04-04 20:30:22:572
-0.0395;0.2879;9.5337;0.0;;;;NaN;;;;0 / 0;180506;2018-04-04 20:30:23:072
-0.0389;0.4788;9.5385;0.0;;;;NaN;;;;0 / 0;181007;2018-04-04 20:30:23:573
0.0114;0.68;9.6923;0.0;;;;NaN;;;;0 / 0;181507;2018-04-04 20:30:24:073
-0.0874;0.7087;9.8013;0.0;;;;NaN;;;;0 / 0;182006;2018-04-04 20:30:24:572
-0.0036;0.4256;9.5786;0.0;;;;NaN;;;;0 / 0;182506;2018-04-04 20:30:25:072
-0.0156;0.5584;9.5158;0.0;;;;NaN;;;;0 / 0;183006;2018-04-04 20:30:25:572
0.0048;0.4513;9.7989;0.0;;;;NaN;;;;0 / 0;183506;2018-04-04 20:30:26:072
0.0192;0.4633;9.7217;0.0;;;;NaN;;;;0 / 0;184006;2018-04-04 20:30:26:572
-0.003;0.4381;9.6528;0.0;;;;NaN;;;;0 / 0;184507;2018-04-04 20:30:27:073
0.094;0.5447;9.5403;0.0;;;;NaN;;;;0 / 0;185006;2018-04-04 20:30:27:572
-0.0138;0.5022;9.4936;0.0;;;;NaN;;;;0 / 0;185506;2018-04-04 20:30:28:072
0.0778;0.5183;9.5864;0.0;;;;NaN;;;;0 / 0;186007;2018-04-04 20:30:28:573
0.0485;0.3807;9.6833;0.0;;;;NaN;;;;0 / 0;186506;2018-04-04 20:30:29:072
0.0227;0.5848;9.7965;0.0;;;;NaN;;;;0 / 0;187006;2018-04-04 20:30:29:572
0.0952;0.7129;9.8007;0.0;;;;NaN;;;;0 / 0;187506;2018-04-04 20:30:30:072
0.0545;0.6644;9.6049;0.0;;;;NaN;;;;0 / 0;188006;2018-04-04 20:30:30:572
-0.0072;0.3932;9.5499;0.0;;;;NaN;;;;0 / 0;188510;2018-04-04 20:30:31:076
-0.0557;0.3095;9.5636;0.0;;;;NaN;;;;0 / 0;189006;2018-04-04 20:30:31:572
0.0257;0.4932;9.7145;0.0;;;;NaN;;;;0 / 0;189507;2018-04-04 20:30:32:073
0.0934;0.7081;9.7438;0.0;;;;NaN;;;;0 / 0;190007;2018-04-04 20:30:32:573
0.0772;0.6991;9.5696;0.0;;;;NaN;;;;0 / 0;190506;2018-04-04 20:30:33:072
0.0688;0.7087;9.575;0.0;;;;NaN;;;;0 / 0;191006;2018-04-04 20:30:33:572
0.0215;0.5076;9.8084;0.0;;;;NaN;;;;0 / 0;191507;2018-04-04 20:30:34:073
0.0449;0.3986;9.6355;0.0;;;;NaN;;;;0 / 0;192006;2018-04-04 20:30:34:572
-0.0335;0.3561;9.4595;0.0;;;;NaN;;;;0 / 0;192506;2018-04-04 20:30:35:072
0.0497;0.5112;9.6804;0.0;;;;NaN;;;;0 / 0;193007;2018-04-04 20:30:35:573
0.1143;0.7542;9.7767;0.0;;;;NaN;;;;0 / 0;193506;2018-04-04 20:30:36:072
0.1425;0.8416;9.7205;0.0;;;;NaN;;;;0 / 0;194006;2018-04-04 20:30:36:572
0.0455;0.6297;9.7546;0.0;;;;NaN;;;;0 / 0;194507;2018-04-04 20:30:37:073
-6.0E-4;0.4735;9.8354;0.0;;;;NaN;;;;0 / 0;195006;2018-04-04 20:30:37:572
0.0048;0.255;9.6043;0.0;;;;NaN;;;;0 / 0;195506;2018-04-04 20:30:38:072
-0.0078;0.2975;9.4224;0.0;;;;NaN;;;;0 / 0;196006;2018-04-04 20:30:38:572
0.0156;0.5997;9.6211;0.0;;;;NaN;;;;0 / 0;196506;2018-04-04 20:30:39:072
0.0886;0.7907;9.672;0.0;;;;NaN;;;;0 / 0;197007;2018-04-04 20:30:39:573
0.1317;0.8475;9.6953;0.0;;;;NaN;;;;0 / 0;197508;2018-04-04 20:30:40:074
0.0928;0.6913;9.8108;0.0;;;;NaN;;;;0 / 0;198006;2018-04-04 20:30:40:572
-0.0371;0.3214;9.6492;0.0;;;;NaN;;;;0 / 0;198506;2018-04-04 20:30:41:072
-0.1083;0.1287;9.505;0.0;;;;NaN;;;;0 / 0;199006;2018-04-04 20:30:41:572
-0.0138;0.2526;9.5804;0.0;;;;NaN;;;;0 / 0;199506;2018-04-04 20:30:42:072
0.1101;0.7027;9.6594;0.0;;;;NaN;;;;0 / 0;200007;2018-04-04 20:30:42:573
0.1083;0.9577;9.8037;0.0;;;;NaN;;;;0 / 0;200507;2018-04-04 20:30:43:073
0.0976;0.8823;9.7258;0.0;;;;NaN;;;;0 / 0;201006;2018-04-04 20:30:43:572
0.0263;0.4693;9.6965;0.0;;;;NaN;;;;0 / 0;201506;2018-04-04 20:30:44:072
0.0305;0.1365;9.8318;0.0;;;;NaN;;;;0 / 0;202007;2018-04-04 20:30:44:573
-0.0628;0.1419;9.6193;0.0;;;;NaN;;;;0 / 0;202506;2018-04-04 20:30:45:072
-0.0383;0.4687;9.5541;0.0;;;;NaN;;;;0 / 0;203013;2018-04-04 20:30:45:579
0.085;0.6752;9.6409;0.0;;;;NaN;;;;0 / 0;203506;2018-04-04 20:30:46:072
0.0551;0.6782;9.7558;0.0;;;;NaN;;;;0 / 0;204006;2018-04-04 20:30:46:572
0.0778;0.7266;9.6618;0.0;;;;NaN;;;;0 / 0;204506;2018-04-04 20:30:47:072
-0.1024;0.4711;9.7175;0.0;;;;NaN;;;;0 / 0;205007;2018-04-04 20:30:47:573
-0.1568;-0.0048;9.6415;0.0;;;;NaN;;;;0 / 0;205506;2018-04-04 20:30:48:072
0.0323;0.1832;9.6265;0.0;;;;NaN;;;;0 / 0;206007;2018-04-04 20:30:48:573
-0.3735;0.5339;9.4978;0.0;;;;NaN;;;;0 / 0;206506;2018-04-04 20:30:49:072
1.5969;-1.7125;9.9359;0.0;;;;NaN;;;;0 / 0;207007;2018-04-04 20:30:49:573
0.0593;0.7638;9.7438;0.0;;;;NaN;;;;0 / 0;207506;2018-04-04 20:30:50:072
-0.0239;0.4016;9.7025;0.0;;;;NaN;;;;0 / 0;208006;2018-04-04 20:30:50:572
-0.0778;0.243;9.6839;0.0;;;;NaN;;;;0 / 0;208506;2018-04-04 20:30:51:072
0.0736;0.1939;9.6971;0.0;;;;NaN;;;;0 / 0;209006;2018-04-04 20:30:51:572
-0.246;4.6501;8.1684;0.0;;;;NaN;;;;0 / 0;209509;2018-04-04 20:30:52:075
2.241;-0.808;11.321;0.0;;;;NaN;;;;0 / 0;210016;2018-04-04 20:30:52:582
1.5778;1.2091;9.3248;0.0;;;;NaN;;;;0 / 0;210507;2018-04-04 20:30:53:073
-0.7027;0.7362;9.2003;0.0;;;;NaN;;;;0 / 0;211006;2018-04-04 20:30:53:572
-0.2077;0.2903;9.6283;0.0;;;;NaN;;;;0 / 0;211506;2018-04-04 20:30:54:072
-0.1161;-0.0922;9.7875;0.0;;;;NaN;;;;0 / 0;212006;2018-04-04 20:30:54:572
-0.228;-0.747;9.7791;0.0;;;;NaN;;;;0 / 0;212507;2018-04-04 20:30:55:073
-0.1448;-1.3078;9.517;0.0;;;;NaN;;;;0 / 0;213006;2018-04-04 20:30:55:572
-0.0712;0.5052;9.678;0.0;;;;NaN;;;;0 / 0;213506;2018-04-04 20:30:56:072
0.0664;0.419;9.5912;0.0;;;;NaN;;;;0 / 0;214007;2018-04-04 20:30:56:573
0.0036;0.3615;9.5535;0.0;;;;NaN;;;;0 / 0;214507;2018-04-04 20:30:57:073
-0.0084;0.2795;9.7055;0.0;;;;NaN;;;;0 / 0;215006;2018-04-04 20:30:57:572
-0.0365;0.4381;9.6277;0.0;;;;NaN;;;;0 / 0;215506;2018-04-04 20:30:58:072
0.0198;0.6225;9.6881;0.0;;;;NaN;;;;0 / 0;216006;2018-04-04 20:30:58:572
0.0808;0.7661;9.7067;0.0;;;;NaN;;;;0 / 0;216506;2018-04-04 20:30:59:072
0.07;0.7111;9.6073;0.0;;;;NaN;;;;0 / 0;217006;2018-04-04 20:30:59:572
0.0227;0.4735;9.5559;0.0;;;;NaN;;;;0 / 0;217509;2018-04-04 20:31:00:075
-0.0497;0.3029;9.6935;0.0;;;;NaN;;;;0 / 0;218006;2018-04-04 20:31:00:572
-0.0377;0.3531;9.8007;0.0;;;;NaN;;;;0 / 0;218506;2018-04-04 20:31:01:072
0.0646;0.6524;9.5828;0.0;;;;NaN;;;;0 / 0;219006;2018-04-04 20:31:01:572
0.1083;0.7829;9.6534;0.0;;;;NaN;;;;0 / 0;219507;2018-04-04 20:31:02:073
0.1251;0.753;9.809;0.0;;;;NaN;;;;0 / 0;220006;2018-04-04 20:31:02:572
0.0551;0.5794;9.7791;0.0;;;;NaN;;;;0 / 0;220506;2018-04-04 20:31:03:072
-0.0407;0.2693;9.6031;0.0;;;;NaN;;;;0 / 0;221007;2018-04-04 20:31:03:573
-0.0664;0.2143;9.6271;0.0;;;;NaN;;;;0 / 0;221506;2018-04-04 20:31:04:072
0.0036;0.3591;9.6935;0.0;;;;NaN;;;;0 / 0;222006;2018-04-04 20:31:04:572
0.0018;0.498;9.7001;0.0;;;;NaN;;;;0 / 0;222506;2018-04-04 20:31:05:072
0.1718;0.8984;9.6187;0.0;;;;NaN;;;;0 / 0;223007;2018-04-04 20:31:05:573
0.1718;0.8984;9.6187;0.0;;;;NaN;;;;0 / 0;223507;2018-04-04 20:31:06:073
-0.0174;0.3831;9.7121;0.0;;;;NaN;;;;0 / 0;224006;2018-04-04 20:31:06:572
-0.0347;0.2412;9.6798;0.0;;;;NaN;;;;0 / 0;224507;2018-04-04 20:31:07:073
-0.0174;0.3669;9.5894;0.0;;;;NaN;;;;0 / 0;225006;2018-04-04 20:31:07:572
0.0563;0.6069;9.651;0.0;;;;NaN;;;;0 / 0;225506;2018-04-04 20:31:08:072
0.1275;0.8182;9.6756;0.0;;;;NaN;;;;0 / 0;226006;2018-04-04 20:31:08:572
-0.2173;0.4669;9.4008;0.0;;;;NaN;;;;0 / 0;226506;2018-04-04 20:31:09:072
0.0227;0.4968;9.5828;0.0;;;;NaN;;;;0 / 0;227006;2018-04-04 20:31:09:572
0.0634;0.2442;9.6624;0.0;;;;NaN;;;;0 / 0;227507;2018-04-04 20:31:10:073
0.0718;0.3047;9.7797;0.0;;;;NaN;;;;0 / 0;228007;2018-04-04 20:31:10:573
-0.0341;0.5309;9.8402;0.0;;;;NaN;;;;0 / 0;228506;2018-04-04 20:31:11:072
0.1915;0.5429;9.6223;0.0;;;;NaN;;;;0 / 0;229006;2018-04-04 20:31:11:572
0.3508;0.7171;9.1111;0.0;;;;NaN;;;;0 / 0;229507;2018-04-04 20:31:12:073
-0.0215;0.3621;9.5128;0.0;;;;NaN;;;;0 / 0;230006;2018-04-04 20:31:12:572
-0.0509;0.2622;9.6492;0.0;;;;NaN;;;;0 / 0;230506;2018-04-04 20:31:13:072
-0.1179;0.3639;9.6624;0.0;;;;NaN;;;;0 / 0;231006;2018-04-04 20:31:13:572
0.1311;0.583;9.8186;0.0;;;;NaN;;;;0 / 0;231507;2018-04-04 20:31:14:073
0.1269;0.7548;9.6468;0.0;;;;NaN;;;;0 / 0;232006;2018-04-04 20:31:14:572
0.0682;0.7248;9.5882;0.0;;;;NaN;;;;0 / 0;232506;2018-04-04 20:31:15:072
0.0371;0.4405;9.6121;0.0;;;;NaN;;;;0 / 0;233006;2018-04-04 20:31:15:572
-0.0724;0.1861;9.5463;0.0;;;;NaN;;;;0 / 0;233506;2018-04-04 20:31:16:072
-0.0557;0.3124;9.66;0.0;;;;NaN;;;;0 / 0;234007;2018-04-04 20:31:16:573
0.0904;0.5812;9.7845;0.0;;;;NaN;;;;0 / 0;234507;2018-04-04 20:31:17:073
0.1861;0.9816;9.7839;0.0;;;;NaN;;;;0 / 0;235006;2018-04-04 20:31:17:572
0.1305;0.8954;9.7055;0.0;;;;NaN;;;;0 / 0;235506;2018-04-04 20:31:18:072
0.0389;0.5854;9.7342;0.0;;;;NaN;;;;0 / 0;236006;2018-04-04 20:31:18:572
-0.0611;0.1496;9.5876;0.0;;;;NaN;;;;0 / 0;236506;2018-04-04 20:31:19:072
-0.1437;0.07;9.6145;0.0;;;;NaN;;;;0 / 0;237006;2018-04-04 20:31:19:572
0.0078;0.4806;9.7348;0.0;;;;NaN;;;;0 / 0;237506;2018-04-04 20:31:20:072
0.1987;0.8679;9.6935;0.0;;;;NaN;;;;0 / 0;238006;2018-04-04 20:31:20:572
0.2179;0.993;9.581;0.0;;;;NaN;;;;0 / 0;238506;2018-04-04 20:31:21:072
0.1191;0.747;9.6492;0.0;;;;NaN;;;;0 / 0;239006;2018-04-04 20:31:21:572
0.1047;0.6201;9.6618;0.0;;;;NaN;;;;0 / 0;239506;2018-04-04 20:31:22:072
-0.0994;0.1526;9.6702;0.0;;;;NaN;;;;0 / 0;240006;2018-04-04 20:31:22:572
0.0024;0.3543;9.7211;0.0;;;;NaN;;;;0 / 0;240506;2018-04-04 20:31:23:072
0.0964;0.6105;9.493;0.0;;;;NaN;;;;0 / 0;241006;2018-04-04 20:31:23:572
0.1113;0.7997;9.5744;0.0;;;;NaN;;;;0 / 0;241507;2018-04-04 20:31:24:073
0.1185;0.8541;9.8174;0.0;;;;NaN;;;;0 / 0;242006;2018-04-04 20:31:24:572
0.0557;0.4471;9.6804;0.0;;;;NaN;;;;0 / 0;242507;2018-04-04 20:31:25:073
-0.0814;0.1508;9.6373;0.0;;;;NaN;;;;0 / 0;243007;2018-04-04 20:31:25:573
-0.0886;0.2089;9.6307;0.0;;;;NaN;;;;0 / 0;243507;2018-04-04 20:31:26:073
-0.003;0.4345;9.6121;0.0;;;;NaN;;;;0 / 0;244007;2018-04-04 20:31:26:573
0.1502;0.8697;9.6804;0.0;;;;NaN;;;;0 / 0;244507;2018-04-04 20:31:27:073
0.1616;0.9176;9.6941;0.0;;;;NaN;;;;0 / 0;245007;2018-04-04 20:31:27:573
0.0772;0.6123;9.6367;0.0;;;;NaN;;;;0 / 0;245507;2018-04-04 20:31:28:073
-0.0551;0.2436;9.6343;0.0;;;;NaN;;;;0 / 0;246007;2018-04-04 20:31:28:573
-0.0664;0.1287;9.7815;0.0;;;;NaN;;;;0 / 0;246506;2018-04-04 20:31:29:072
-0.0012;0.3956;9.7504;0.0;;;;NaN;;;;0 / 0;247006;2018-04-04 20:31:29:572
0.1035;0.7877;9.6175;0.0;;;;NaN;;;;0 / 0;247506;2018-04-04 20:31:30:072
0.1275;0.756;9.7103;0.0;;;;NaN;;;;0 / 0;248006;2018-04-04 20:31:30:572
0.1006;0.6141;9.6911;0.0;;;;NaN;;;;0 / 0;248506;2018-04-04 20:31:31:072
0.012;0.4585;9.4661;0.0;;;;NaN;;;;0 / 0;249006;2018-04-04 20:31:31:572
-0.0329;0.3549;9.4894;0.0;;;;NaN;;;;0 / 0;249506;2018-04-04 20:31:32:072
-0.0335;0.2705;9.8916;0.0;;;;NaN;;;;0 / 0;250006;2018-04-04 20:31:32:572
0.0658;0.6147;9.8162;0.0;;;;NaN;;;;0 / 0;250506;2018-04-04 20:31:33:072
0.1257;0.8302;9.5822;0.0;;;;NaN;;;;0 / 0;251006;2018-04-04 20:31:33:572
0.1006;0.6117;9.6193;0.0;;;;NaN;;;;0 / 0;251506;2018-04-04 20:31:34:072
0.0144;0.4136;9.6444;0.0;;;;NaN;;;;0 / 0;252006;2018-04-04 20:31:34:572
-0.0401;0.2897;9.5786;0.0;;;;NaN;;;;0 / 0;252506;2018-04-04 20:31:35:072
6.0E-4;0.4262;9.7953;0.0;;;;NaN;;;;0 / 0;253007;2018-04-04 20:31:35:573
0.0994;0.6375;9.8174;0.0;;;;NaN;;;;0 / 0;253507;2018-04-04 20:31:36:073
0.1269;0.7691;9.6391;0.0;;;;NaN;;;;0 / 0;254007;2018-04-04 20:31:36:573
0.1083;0.5752;9.5217;0.0;;;;NaN;;;;0 / 0;254507;2018-04-04 20:31:37:073
-0.0551;0.2628;9.5355;0.0;;;;NaN;;;;0 / 0;255007;2018-04-04 20:31:37:573
-0.1;0.2622;9.6486;0.0;;;;NaN;;;;0 / 0;255506;2018-04-04 20:31:38:072
0.0563;0.486;9.8234;0.0;;;;NaN;;;;0 / 0;256006;2018-04-04 20:31:38:572
0.1329;0.7476;9.6774;0.0;;;;NaN;;;;0 / 0;256506;2018-04-04 20:31:39:072
0.1454;0.7853;9.6534;0.0;;;;NaN;;;;0 / 0;257007;2018-04-04 20:31:39:573
0.0419;0.5692;9.7235;0.0;;;;NaN;;;;0 / 0;257507;2018-04-04 20:31:40:073
-0.0389;0.3627;9.6672;0.0;;;;NaN;;;;0 / 0;258006;2018-04-04 20:31:40:572
-0.0527;0.1963;9.5786;0.0;;;;NaN;;;;0 / 0;258506;2018-04-04 20:31:41:072
-0.0126;0.346;9.6343;0.0;;;;NaN;;;;0 / 0;259006;2018-04-04 20:31:41:572
0.1155;0.7638;9.6923;0.0;;;;NaN;;;;0 / 0;259506;2018-04-04 20:31:42:072
0.2029;0.9529;9.7504;0.0;;;;NaN;;;;0 / 0;260006;2018-04-04 20:31:42:572
0.1143;0.8116;9.6863;0.0;;;;NaN;;;;0 / 0;260506;2018-04-04 20:31:43:072
-0.0233;0.2813;9.5708;0.0;;;;NaN;;;;0 / 0;261006;2018-04-04 20:31:43:572
-0.0772;0.0934;9.6337;0.0;;;;NaN;;;;0 / 0;261506;2018-04-04 20:31:44:072
-0.0862;0.234;9.657;0.0;;;;NaN;;;;0 / 0;262007;2018-04-04 20:31:44:573
-0.079;0.2532;9.648;0.0;;;;NaN;;;;0 / 0;262506;2018-04-04 20:31:45:072
0.2442;0.9637;9.8168;0.0;;;;NaN;;;;0 / 0;263006;2018-04-04 20:31:45:572
0.1365;0.814;9.6708;0.0;;;;NaN;;;;0 / 0;263507;2018-04-04 20:31:46:073
-0.0407;0.41;9.5445;0.0;;;;NaN;;;;0 / 0;264009;2018-04-04 20:31:46:575
-0.0736;0.1957;9.6774;0.0;;;;NaN;;;;0 / 0;264506;2018-04-04 20:31:47:072
-0.0437;0.2053;9.8162;0.0;;;;NaN;;;;0 / 0;265006;2018-04-04 20:31:47:572
0.0233;0.5112;9.7288;0.0;;;;NaN;;;;0 / 0;265507;2018-04-04 20:31:48:073
0.1257;0.7608;9.5672;0.0;;;;NaN;;;;0 / 0;266006;2018-04-04 20:31:48:572
0.1431;0.7332;9.5553;0.0;;;;NaN;;;;0 / 0;266507;2018-04-04 20:31:49:073
0.006;0.5632;9.6235;0.0;;;;NaN;;;;0 / 0;267006;2018-04-04 20:31:49:572
-0.0437;0.3873;9.6636;0.0;;;;NaN;;;;0 / 0;267506;2018-04-04 20:31:50:072
-0.012;0.31;9.6672;0.0;;;;NaN;;;;0 / 0;268006;2018-04-04 20:31:50:572
-0.0305;0.401;9.7857;0.0;;;;NaN;;;;0 / 0;268507;2018-04-04 20:31:51:073
0.0389;0.5537;9.6223;0.0;;;;NaN;;;;0 / 0;269006;2018-04-04 20:31:51:572
0.073;0.5471;9.6079;0.0;;;;NaN;;;;0 / 0;269507;2018-04-04 20:31:52:073
0.0652;0.5267;9.6816;0.0;;;;NaN;;;;0 / 0;270006;2018-04-04 20:31:52:572
-0.0239;0.4621;9.6522;0.0;;;;NaN;;;;0 / 0;270506;2018-04-04 20:31:53:072
0.0048;0.4848;9.5954;0.0;;;;NaN;;;;0 / 0;271006;2018-04-04 20:31:53:572
0.07;0.4447;9.827;0.0;;;;NaN;;;;0 / 0;271507;2018-04-04 20:31:54:073
0.0515;0.5363;9.6564;0.0;;;;NaN;;;;0 / 0;272006;2018-04-04 20:31:54:572
-0.0108;0.5279;9.5906;0.0;;;;NaN;;;;0 / 0;272507;2018-04-04 20:31:55:073
0.0748;0.4806;9.6738;0.0;;;;NaN;;;;0 / 0;273007;2018-04-04 20:31:55:573
0.0724;0.4944;9.6415;0.0;;;;NaN;;;;0 / 0;273506;2018-04-04 20:31:56:072
0.0694;0.5405;9.6229;0.0;;;;NaN;;;;0 / 0;274006;2018-04-04 20:31:56:572
0.0814;0.5537;9.7127;0.0;;;;NaN;;;;0 / 0;274507;2018-04-04 20:31:57:073
0.07;0.5435;9.7522;0.0;;;;NaN;;;;0 / 0;275006;2018-04-04 20:31:57:572
0.0018;0.5189;9.6798;0.0;;;;NaN;;;;0 / 0;275506;2018-04-04 20:31:58:072
-0.003;0.4543;9.6965;0.0;;;;NaN;;;;0 / 0;276006;2018-04-04 20:31:58:572
0.0359;0.4519;9.6223;0.0;;;;NaN;;;;0 / 0;276506;2018-04-04 20:31:59:072
0.0569;0.4465;9.5846;0.0;;;;NaN;;;;0 / 0;277006;2018-04-04 20:31:59:572
0.0521;0.5668;9.6097;0.0;;;;NaN;;;;0 / 0;277508;2018-04-04 20:32:00:074
0.0748;0.6494;9.7264;0.0;;;;NaN;;;;0 / 0;278006;2018-04-04 20:32:00:572
0.0706;0.6339;9.7211;0.0;;;;NaN;;;;0 / 0;278507;2018-04-04 20:32:01:073
0.0605;0.4453;9.7007;0.0;;;;NaN;;;;0 / 0;279007;2018-04-04 20:32:01:573
0.0066;0.3932;9.6235;0.0;;;;NaN;;;;0 / 0;279506;2018-04-04 20:32:02:072
-0.0162;0.4519;9.4984;0.0;;;;NaN;;;;0 / 0;280006;2018-04-04 20:32:02:572
-0.0024;0.4717;9.6295;0.0;;;;NaN;;;;0 / 0;280507;2018-04-04 20:32:03:073
0.1161;0.6734;9.7929;0.0;;;;NaN;;;;0 / 0;281007;2018-04-04 20:32:03:573
0.1077;0.7829;9.6947;0.0;;;;NaN;;;;0 / 0;281510;2018-04-04 20:32:04:076
0.0485;0.5824;9.6816;0.0;;;;NaN;;;;0 / 0;282007;2018-04-04 20:32:04:573
-0.0479;0.3531;9.7139;0.0;;;;NaN;;;;0 / 0;282507;2018-04-04 20:32:05:073
-0.0694;0.234;9.6899;0.0;;;;NaN;;;;0 / 0;283006;2018-04-04 20:32:05:572
0.0377;0.4286;9.6648;0.0;;;;NaN;;;;0 / 0;283506;2018-04-04 20:32:06:072
0.1;0.6686;9.7109;0.0;;;;NaN;;;;0 / 0;284006;2018-04-04 20:32:06:572
0.1107;0.7338;9.5876;0.0;;;;NaN;;;;0 / 0;284506;2018-04-04 20:32:07:072
0.0862;0.6692;9.5924;0.0;;;;NaN;;;;0 / 0;285007;2018-04-04 20:32:07:573
-0.0144;0.4082;9.6905;0.0;;;;NaN;;;;0 / 0;285506;2018-04-04 20:32:08:072
-0.0335;0.3154;9.6738;0.0;;;;NaN;;;;0 / 0;286006;2018-04-04 20:32:08:572
0.0455;0.3879;9.7157;0.0;;;;NaN;;;;0 / 0;286506;2018-04-04 20:32:09:072
0.0437;0.6003;9.7815;0.0;;;;NaN;;;;0 / 0;287007;2018-04-04 20:32:09:573
0.064;0.6638;9.7085;0.0;;;;NaN;;;;0 / 0;287506;2018-04-04 20:32:10:072
0.0491;0.5435;9.6468;0.0;;;;NaN;;;;0 / 0;288006;2018-04-04 20:32:10:572
0.0138;0.3442;9.5804;0.0;;;;NaN;;;;0 / 0;288507;2018-04-04 20:32:11:073
-0.0138;0.31;9.5954;0.0;;;;NaN;;;;0 / 0;289006;2018-04-04 20:32:11:572
0.0257;0.5201;9.7785;0.0;;;;NaN;;;;0 / 0;289506;2018-04-04 20:32:12:072
0.0192;0.5183;9.8138;0.0;;;;NaN;;;;0 / 0;290006;2018-04-04 20:32:12:572
0.1089;0.6387;9.6175;0.0;;;;NaN;;;;0 / 0;290507;2018-04-04 20:32:13:073
0.0742;0.5818;9.5954;0.0;;;;NaN;;;;0 / 0;291007;2018-04-04 20:32:13:573
-0.0509;0.3956;9.5589;0.0;;;;NaN;;;;0 / 0;291507;2018-04-04 20:32:14:073
-0.0239;0.2316;9.6618;0.0;;;;NaN;;;;0 / 0;292006;2018-04-04 20:32:14:572
-0.0078;0.4872;9.7294;0.0;;;;NaN;;;;0 / 0;292506;2018-04-04 20:32:15:072
0.149;0.732;9.666;0.0;;;;NaN;;;;0 / 0;293006;2018-04-04 20:32:15:572
0.1951;0.7638;9.6977;0.0;;;;NaN;;;;0 / 0;293506;2018-04-04 20:32:16:072
0.0599;0.6255;9.6965;0.0;;;;NaN;;;;0 / 0;294006;2018-04-04 20:32:16:572
-0.0425;0.328;9.6331;0.0;;;;NaN;;;;0 / 0;294506;2018-04-04 20:32:17:072
-0.0317;0.167;9.642;0.0;;;;NaN;;;;0 / 0;295006;2018-04-04 20:32:17:572
-0.0341;0.2334;9.6187;0.0;;;;NaN;;;;0 / 0;295506;2018-04-04 20:32:18:072
0.0557;0.6219;9.8025;0.0;;;;NaN;;;;0 / 0;296006;2018-04-04 20:32:18:572
0.1754;0.8787;9.6893;0.0;;;;NaN;;;;0 / 0;296506;2018-04-04 20:32:19:072
0.1832;0.8051;9.566;0.0;;;;NaN;;;;0 / 0;297006;2018-04-04 20:32:19:572
0.0269;0.4567;9.7139;0.0;;;;NaN;;;;0 / 0;297506;2018-04-04 20:32:20:072
-0.0874;0.1999;9.7797;0.0;;;;NaN;;;;0 / 0;298007;2018-04-04 20:32:20:573
-0.07;0.1688;9.5463;0.0;;;;NaN;;;;0 / 0;298506;2018-04-04 20:32:21:072
0.07;0.4992;9.6684;0.0;;;;NaN;;;;0 / 0;299006;2018-04-04 20:32:21:572
0.158;0.7703;9.7145;0.0;;;;NaN;;;;0 / 0;299506;2018-04-04 20:32:22:072
0.1466;0.7715;9.6798;0.0;;;;NaN;;;;0 / 0;300006;2018-04-04 20:32:22:572
0.0293;0.5758;9.7312;0.0;;;;NaN;;;;0 / 0;300507;2018-04-04 20:32:23:073
0.0802;0.1137;9.6043;0.0;;;;NaN;;;;0 / 0;301007;2018-04-04 20:32:23:573
-0.1131;0.0036;9.5876;0.0;;;;NaN;;;;0 / 0;301506;2018-04-04 20:32:24:072
-0.0892;0.2406;9.6307;0.0;;;;NaN;;;;0 / 0;302006;2018-04-04 20:32:24:572
0.0958;0.6602;9.7187;0.0;;;;NaN;;;;0 / 0;302506;2018-04-04 20:32:25:072
0.2562;0.1466;10.1394;0.0;;;;NaN;;;;0 / 0;303007;2018-04-04 20:32:25:573
-0.0084;0.7356;9.7336;0.0;;;;NaN;;;;0 / 0;303507;2018-04-04 20:32:26:073
-0.07;0.3639;9.6115;0.0;;;;NaN;;;;0 / 0;304007;2018-04-04 20:32:26:573
-0.1173;0.088;9.4984;0.0;;;;NaN;;;;0 / 0;304506;2018-04-04 20:32:27:072
-0.0856;0.2167;9.6642;0.0;;;;NaN;;;;0 / 0;305007;2018-04-04 20:32:27:573
-0.0383;0.4729;9.8162;0.0;;;;NaN;;;;0 / 0;305506;2018-04-04 20:32:28:072
0.2292;0.9224;9.5894;0.0;;;;NaN;;;;0 / 0;306006;2018-04-04 20:32:28:572
0.094;0.6261;9.3817;0.0;;;;NaN;;;;0 / 0;306506;2018-04-04 20:32:29:072
-0.0329;0.2682;9.7827;0.0;;;;NaN;;;;0 / 0;307006;2018-04-04 20:32:29:572
-0.1209;0.1281;9.8497;0.0;;;;NaN;;;;0 / 0;307506;2018-04-04 20:32:30:072
-0.1024;0.1317;9.6618;0.0;;;;NaN;;;;0 / 0;308006;2018-04-04 20:32:30:572
0.0664;0.5501;9.6055;0.0;;;;NaN;;;;0 / 0;308506;2018-04-04 20:32:31:072
0.0754;0.6566;9.681;0.0;;;;NaN;;;;0 / 0;309006;2018-04-04 20:32:31:572
0.0952;0.5573;9.6594;0.0;;;;NaN;;;;0 / 0;309506;2018-04-04 20:32:32:072
-0.0186;0.343;9.6331;0.0;;;;NaN;;;;0 / 0;310007;2018-04-04 20:32:32:573
-0.085;0.2544;9.7665;0.0;;;;NaN;;;;0 / 0;310506;2018-04-04 20:32:33:072
-0.0162;0.3651;9.7803;0.0;;;;NaN;;;;0 / 0;311006;2018-04-04 20:32:33:572
0.0922;0.498;9.6738;0.0;;;;NaN;;;;0 / 0;311506;2018-04-04 20:32:34:072
0.0976;0.5812;9.6295;0.0;;;;NaN;;;;0 / 0;312006;2018-04-04 20:32:34:572
0.0539;0.6267;9.6199;0.0;;;;NaN;;;;0 / 0;312506;2018-04-04 20:32:35:072
0.07;0.5136;9.6905;0.0;;;;NaN;;;;0 / 0;313007;2018-04-04 20:32:35:573
0.076;0.3723;9.7235;0.0;;;;NaN;;;;0 / 0;313506;2018-04-04 20:32:36:072
-0.0036;0.3537;9.7851;0.0;;;;NaN;;;;0 / 0;314006;2018-04-04 20:32:36:572
0.009;0.5052;9.678;0.0;;;;NaN;;;;0 / 0;314506;2018-04-04 20:32:37:072
0.1125;0.4752;9.5888;0.0;;;;NaN;;;;0 / 0;315007;2018-04-04 20:32:37:573
-0.2059;0.5525;9.5984;0.0;;;;NaN;;;;0 / 0;315506;2018-04-04 20:32:38:072
-0.3597;0.4399;9.5397;0.0;;;;NaN;;;;0 / 0;316006;2018-04-04 20:32:38:572
1.0924;-0.2496;9.6462;0.0;;;;NaN;;;;0 / 0;316506;2018-04-04 20:32:39:072
-0.2484;0.0658;9.9742;0.0;;;;NaN;;;;0 / 0;317007;2018-04-04 20:32:39:573
-0.2586;0.3262;9.8617;0.0;;;;NaN;;;;0 / 0;317507;2018-04-04 20:32:40:073
0.079;0.5596;9.6947;0.0;;;;NaN;;;;0 / 0;318006;2018-04-04 20:32:40:572
0.0186;0.4459;9.7049;0.0;;;;NaN;;;;0 / 0;318506;2018-04-04 20:32:41:072
-0.0688;0.3304;9.7073;0.0;;;;NaN;;;;0 / 0;319007;2018-04-04 20:32:41:573
-0.0341;0.5471;9.4242;0.0;;;;NaN;;;;0 / 0;319506;2018-04-04 20:32:42:072
0.1101;0.4172;9.7881;0.0;;;;NaN;;;;0 / 0;320006;2018-04-04 20:32:42:572
0.012;0.5333;9.7989;0.0;;;;NaN;;;;0 / 0;320507;2018-04-04 20:32:43:073
-0.2239;0.6069;9.6067;0.0;;;;NaN;;;;0 / 0;321006;2018-04-04 20:32:43:572
0.0964;-0.3388;14.5609;0.0;;;;NaN;;;;0 / 0;321507;2018-04-04 20:32:44:073
1.6167;0.4196;9.1614;0.0;;;;NaN;;;;0 / 0;322007;2018-04-04 20:32:44:573
-0.1413;0.3346;9.5846;0.0;;;;NaN;;;;0 / 0;322506;2018-04-04 20:32:45:072
-0.0443;0.3627;9.7941;0.0;;;;NaN;;;;0 / 0;323006;2018-04-04 20:32:45:572
0.0982;0.5596;9.7995;0.0;;;;NaN;;;;0 / 0;323506;2018-04-04 20:32:46:072
0.1377;0.7075;9.587;0.0;;;;NaN;;;;0 / 0;324006;2018-04-04 20:32:46:572
0.0581;0.5291;9.733;0.0;;;;NaN;;;;0 / 0;324507;2018-04-04 20:32:47:073
-0.015;0.31;9.6828;0.0;;;;NaN;;;;0 / 0;325007;2018-04-04 20:32:47:573
-0.0557;0.2394;9.651;0.0;;;;NaN;;;;0 / 0;325507;2018-04-04 20:32:48:073
-0.0431;0.3148;9.6911;0.0;;;;NaN;;;;0 / 0;326007;2018-04-04 20:32:48:573
0.082;0.5626;9.5858;0.0;;;;NaN;;;;0 / 0;326506;2018-04-04 20:32:49:072
0.1706;0.753;9.5888;0.0;;;;NaN;;;;0 / 0;327006;2018-04-04 20:32:49:572
0.1053;0.653;9.6624;0.0;;;;NaN;;;;0 / 0;327506;2018-04-04 20:32:50:072
0.3382;-0.9266;10.4758;0.0;;;;NaN;;;;0 / 0;328006;2018-04-04 20:32:50:572
0.4334;0.817;9.5283;0.0;;;;NaN;;;;0 / 0;328507;2018-04-04 20:32:51:073
-0.2478;-0.5016;9.8114;0.0;;;;NaN;;;;0 / 0;329007;2018-04-04 20:32:51:573
0.0365;0.4148;9.6965;0.0;;;;NaN;;;;0 / 0;329506;2018-04-04 20:32:52:072
0.1191;0.7039;9.5708;0.0;;;;NaN;;;;0 / 0;330006;2018-04-04 20:32:52:572
0.0946;0.6596;9.7594;0.0;;;;NaN;;;;0 / 0;330506;2018-04-04 20:32:53:072
0.2077;0.6177;9.7073;0.0;;;;NaN;;;;0 / 0;331007;2018-04-04 20:32:53:573
-0.1215;0.2945;9.818;0.0;;;;NaN;;;;0 / 0;331506;2018-04-04 20:32:54:072
-0.1526;0.4166;9.642;0.0;;;;NaN;;;;0 / 0;332006;2018-04-04 20:32:54:572
-0.0114;0.1395;9.5852;0.0;;;;NaN;;;;0 / 0;332507;2018-04-04 20:32:55:073
0.1353;0.6788;9.6863;0.0;;;;NaN;;;;0 / 0;333007;2018-04-04 20:32:55:573
0.149;0.7117;9.6618;0.0;;;;NaN;;;;0 / 0;333507;2018-04-04 20:32:56:073
0.0766;0.5285;9.5403;0.0;;;;NaN;;;;0 / 0;334007;2018-04-04 20:32:56:573
-0.0156;0.2939;9.6307;0.0;;;;NaN;;;;0 / 0;334507;2018-04-04 20:32:57:073
0.0096;0.3885;9.7223;0.0;;;;NaN;;;;0 / 0;335006;2018-04-04 20:32:57:572
0.0162;0.3891;9.7169;0.0;;;;NaN;;;;0 / 0;335507;2018-04-04 20:32:58:073
0.1305;0.6027;9.7582;0.0;;;;NaN;;;;0 / 0;336006;2018-04-04 20:32:58:572
0.1269;0.5938;9.7342;0.0;;;;NaN;;;;0 / 0;336506;2018-04-04 20:32:59:072
0.1107;0.5052;9.5385;0.0;;;;NaN;;;;0 / 0;337007;2018-04-04 20:32:59:573
-0.0227;0.3118;9.566;0.0;;;;NaN;;;;0 / 0;337506;2018-04-04 20:33:00:072
-0.0479;0.3394;9.6822;0.0;;;;NaN;;;;0 / 0;338007;2018-04-04 20:33:00:573
0.0287;0.5261;9.8354;0.0;;;;NaN;;;;0 / 0;338506;2018-04-04 20:33:01:072
0.1335;0.7087;9.9066;0.0;;;;NaN;;;;0 / 0;339006;2018-04-04 20:33:01:572
0.07;0.2155;9.5217;0.0;;;;NaN;;;;0 / 0;339506;2018-04-04 20:33:02:072
-0.0323;0.1143;9.5583;0.0;;;;NaN;;;;0 / 0;340006;2018-04-04 20:33:02:572
-0.1089;0.1209;9.8126;0.0;;;;NaN;;;;0 / 0;340507;2018-04-04 20:33:03:073
-0.0611;0.2562;9.7306;0.0;;;;NaN;;;;0 / 0;341007;2018-04-04 20:33:03:573
0.0168;0.4166;9.7223;0.0;;;;NaN;;;;0 / 0;341506;2018-04-04 20:33:04:072
0.7566;-0.267;10.2663;0.0;;;;NaN;;;;0 / 0;342006;2018-04-04 20:33:04:572
-0.1245;0.5626;9.73;0.0;;;;NaN;;;;0 / 0;342506;2018-04-04 20:33:05:072
-0.0826;0.4244;9.6696;0.0;;;;NaN;;;;0 / 0;343007;2018-04-04 20:33:05:573
0.0221;-0.1616;9.4314;0.0;;;;NaN;;;;0 / 0;343506;2018-04-04 20:33:06:072
-0.1496;0.2454;9.6211;0.0;;;;NaN;;;;0 / 0;344007;2018-04-04 20:33:06:573
-0.0988;0.3693;9.6989;0.0;;;;NaN;;;;0 / 0;344506;2018-04-04 20:33:07:072
0.0198;0.6261;9.5295;0.0;;;;NaN;;;;0 / 0;345006;2018-04-04 20:33:07:572
-0.1012;0.4687;8.8376;0.0;;;;NaN;;;;0 / 0;345506;2018-04-04 20:33:08:072
0.0437;0.5435;9.8348;0.0;;;;NaN;;;;0 / 0;346007;2018-04-04 20:33:08:573
-0.0425;0.2179;9.7522;0.0;;;;NaN;;;;0 / 0;346506;2018-04-04 20:33:09:072
0.0156;0.3023;9.5618;0.0;;;;NaN;;;;0 / 0;347006;2018-04-04 20:33:09:572
0.0048;0.2622;9.739;0.0;;;;NaN;;;;0 / 0;347506;2018-04-04 20:33:10:072
-0.4022;0.981;9.6923;0.0;;;;NaN;;;;0 / 0;348006;2018-04-04 20:33:10:572
0.249;0.8912;9.7546;0.0;;;;NaN;;;;0 / 0;348507;2018-04-04 20:33:11:073
-0.2735;1.0355;9.508;0.0;;;;NaN;;;;0 / 0;349006;2018-04-04 20:33:11:572
-0.7679;0.325;9.6055;0.0;;;;NaN;;;;0 / 0;349506;2018-04-04 20:33:12:072
0.4549;1.1253;9.6965;0.0;;;;NaN;;;;0 / 0;350006;2018-04-04 20:33:12:572
-0.2257;0.1053;9.8264;0.0;;;;NaN;;;;0 / 0;350506;2018-04-04 20:33:13:072
1.3078;-2.3439;7.5806;0.0;;;;NaN;;;;0 / 0;351007;2018-04-04 20:33:13:573
-0.3693;1.904;8.2265;0.0;;;;NaN;;;;0 / 0;351507;2018-04-04 20:33:14:073
0.0946;0.7033;9.6522;0.0;;;;NaN;;;;0 / 0;352006;2018-04-04 20:33:14:572
0.158;0.5764;9.5972;0.0;;;;NaN;;;;0 / 0;352506;2018-04-04 20:33:15:072
-0.0024;0.3513;9.7743;0.0;;;;NaN;;;;0 / 0;353006;2018-04-04 20:33:15:572
-0.0132;0.3322;9.654;0.0;;;;NaN;;;;0 / 0;353506;2018-04-04 20:33:16:072
0.2436;0.4788;9.5553;0.0;;;;NaN;;;;0 / 0;354006;2018-04-04 20:33:16:572
0.1335;0.6835;9.5804;0.0;;;;NaN;;;;0 / 0;354506;2018-04-04 20:33:17:072
0.1209;0.5501;9.6337;0.0;;;;NaN;;;;0 / 0;355006;2018-04-04 20:33:17:572
-0.2017;0.2969;9.7707;0.0;;;;NaN;;;;0 / 0;355506;2018-04-04 20:33:18:072
0.0156;0.4579;9.6223;0.0;;;;NaN;;;;0 / 0;356006;2018-04-04 20:33:18:572
0.0527;0.3819;9.7306;0.0;;;;NaN;;;;0 / 0;356506;2018-04-04 20:33:19:072
-0.0287;0.3789;9.7492;0.0;;;;NaN;;;;0 / 0;357006;2018-04-04 20:33:19:572
0.012;0.5237;9.5624;0.0;;;;NaN;;;;0 / 0;357507;2018-04-04 20:33:20:073
0.1251;0.6979;9.5648;0.0;;;;NaN;;;;0 / 0;358007;2018-04-04 20:33:20:573
0.1305;0.7524;9.6151;0.0;;;;NaN;;;;0 / 0;358506;2018-04-04 20:33:21:072
-0.0293;0.565;9.7671;0.0;;;;NaN;;;;0 / 0;359006;2018-04-04 20:33:21:572
0.2173;0.9673;9.9826;0.0;;;;NaN;;;;0 / 0;359506;2018-04-04 20:33:22:072
0.0108;0.559;9.7169;0.0;;;;NaN;;;;0 / 0;360007;2018-04-04 20:33:22:573
0.1047;0.5902;9.6379;0.0;;;;NaN;;;;0 / 0;360506;2018-04-04 20:33:23:072
1.6137;-0.574;8.822;0.0;;;;NaN;;;;0 / 0;361007;2018-04-04 20:33:23:573
0.3436;1.1007;10.0772;0.0;;;;NaN;;;;0 / 0;361506;2018-04-04 20:33:24:072
0.2137;0.6584;9.8055;0.0;;;;NaN;;;;0 / 0;362006;2018-04-04 20:33:24:572
-0.3921;1.2414;9.4361;0.0;;;;NaN;;;;0 / 0;362506;2018-04-04 20:33:25:072
-0.0628;0.2047;9.4822;0.0;;;;NaN;;;;0 / 0;363006;2018-04-04 20:33:25:572
-0.1155;0.5668;10.4184;0.0;;;;NaN;;;;0 / 0;363507;2018-04-04 20:33:26:073
0.5357;-0.8571;10.2825;0.0;;;;NaN;;;;0 / 0;364006;2018-04-04 20:33:26:572
0.1191;0.8218;9.6343;0.0;;;;NaN;;;;0 / 0;364506;2018-04-04 20:33:27:072
0.1119;0.7326;9.642;0.0;;;;NaN;;;;0 / 0;365006;2018-04-04 20:33:27:572
0.0575;0.6315;9.9533;0.0;;;;NaN;;;;0 / 0;365506;2018-04-04 20:33:28:072
0.0491;0.4663;9.6702;0.0;;;;NaN;;;;0 / 0;366007;2018-04-04 20:33:28:573
0.0664;0.2502;9.5535;0.0;;;;NaN;;;;0 / 0;366506;2018-04-04 20:33:29:072
0.0706;0.4453;9.6085;0.0;;;;NaN;;;;0 / 0;367006;2018-04-04 20:33:29:572
0.0353;0.4782;9.6582;0.0;;;;NaN;;;;0 / 0;367506;2018-04-04 20:33:30:072
0.1203;0.7464;9.7169;0.0;;;;NaN;;;;0 / 0;368006;2018-04-04 20:33:30:572
0.0682;0.6752;9.73;0.0;;;;NaN;;;;0 / 0;368506;2018-04-04 20:33:31:072
-0.0485;0.3531;9.7061;0.0;;;;NaN;;;;0 / 0;369006;2018-04-04 20:33:31:572
-0.0892;0.3406;9.4344;0.0;;;;NaN;;;;0 / 0;369506;2018-04-04 20:33:32:072
-0.1059;0.3172;9.7354;0.0;;;;NaN;;;;0 / 0;370006;2018-04-04 20:33:32:572
-0.0174;0.4974;9.7995;0.0;;;;NaN;;;;0 / 0;370507;2018-04-04 20:33:33:073
0.1454;0.7823;9.7097;0.0;;;;NaN;;;;0 / 0;371007;2018-04-04 20:33:33:573
0.1173;0.753;9.6744;0.0;;;;NaN;;;;0 / 0;371506;2018-04-04 20:33:34:072
0.0676;0.4818;9.6187;0.0;;;;NaN;;;;0 / 0;372006;2018-04-04 20:33:34:572
-0.1454;0.6446;9.3793;0.0;;;;NaN;;;;0 / 0;372506;2018-04-04 20:33:35:072
-0.2137;0.2167;9.7217;0.0;;;;NaN;;;;0 / 0;373006;2018-04-04 20:33:35:572
0.2059;0.2807;9.8952;0.0;;;;NaN;;;;0 / 0;373507;2018-04-04 20:33:36:073
0.1951;0.9373;9.7654;0.0;;;;NaN;;;;0 / 0;374007;2018-04-04 20:33:36:573
0.4579;0.7099;9.9054;0.0;;;;NaN;;;;0 / 0;374506;2018-04-04 20:33:37:072
0.0371;0.6536;9.5277;0.0;;;;NaN;;;;0 / 0;375006;2018-04-04 20:33:37:572
0.0886;0.4926;9.6253;0.0;;;;NaN;;;;0 / 0;375506;2018-04-04 20:33:38:072
0.1077;0.6464;9.8497;0.0;;;;NaN;;;;0 / 0;376006;2018-04-04 20:33:38:572
0.146;0.7883;9.7905;0.0;;;;NaN;;;;0 / 0;376507;2018-04-04 20:33:39:073
0.2125;0.7356;9.4553;0.0;;;;NaN;;;;0 / 0;377006;2018-04-04 20:33:39:572
0.1024;0.723;9.5636;0.0;;;;NaN;;;;0 / 0;377509;2018-04-04 20:33:40:075
-0.182;0.504;9.8958;0.0;;;;NaN;;;;0 / 0;378006;2018-04-04 20:33:40:572
-0.0198;0.5213;9.7486;0.0;;;;NaN;;;;0 / 0;378506;2018-04-04 20:33:41:072
1.2091;-0.2514;9.9964;0.0;;;;NaN;;;;0 / 0;379006;2018-04-04 20:33:41:572
-0.0389;0.3531;9.8557;0.0;;;;NaN;;;;0 / 0;379506;2018-04-04 20:33:42:072
0.0569;0.5417;9.6349;0.0;;;;NaN;;;;0 / 0;380006;2018-04-04 20:33:42:572
0.5315;0.4046;10.243;0.0;;;;NaN;;;;0 / 0;380509;2018-04-04 20:33:43:075
-0.4806;0.1891;9.3009;0.0;;;;NaN;;;;0 / 0;381007;2018-04-04 20:33:43:573
0.495;0.1329;9.6923;0.0;;;;NaN;;;;0 / 0;381506;2018-04-04 20:33:44:072
-0.4178;0.395;10.6991;0.0;;;;NaN;;;;0 / 0;382006;2018-04-04 20:33:44:572
0.1083;0.5638;9.9623;0.0;;;;NaN;;;;0 / 0;382506;2018-04-04 20:33:45:072
1.2773;2.2009;8.4916;0.0;;;;NaN;;;;0 / 0;383007;2018-04-04 20:33:45:573
-1.3521;-0.8499;9.1213;0.0;;;;NaN;;;;0 / 0;383506;2018-04-04 20:33:46:072
0.1041;0.2023;9.8875;0.0;;;;NaN;;;;0 / 0;384006;2018-04-04 20:33:46:572
-0.1209;-1.3916;11.0361;0.0;;;;NaN;;;;0 / 0;384506;2018-04-04 20:33:47:072
-0.4226;-0.6147;10.3286;0.0;;;;NaN;;;;0 / 0;385006;2018-04-04 20:33:47:572
-0.0652;-0.3849;9.7528;0.0;;;;NaN;;;;0 / 0;385506;2018-04-04 20:33:48:072
0.3669;0.334;9.7288;0.0;;;;NaN;;;;0 / 0;386006;2018-04-04 20:33:48:572
0.24;0.1664;9.924;0.0;;;;NaN;;;;0 / 0;386506;2018-04-04 20:33:49:072
0.0162;0.4747;9.56;0.0;;;;NaN;;;;0 / 0;387006;2018-04-04 20:33:49:572
0.1945;0.6566;9.2296;0.0;;;;NaN;;;;0 / 0;387507;2018-04-04 20:33:50:073
0.3932;1.2133;9.5523;0.0;;;;NaN;;;;0 / 0;388007;2018-04-04 20:33:50:573
0.3645;0.3244;9.7552;0.0;;;;NaN;;;;0 / 0;388506;2018-04-04 20:33:51:072
0.0832;0.3657;9.5583;0.0;;;;NaN;;;;0 / 0;389006;2018-04-04 20:33:51:572
0.0766;-0.076;9.7689;0.0;;;;NaN;;;;0 / 0;389506;2018-04-04 20:33:52:072
0.349;0.7955;9.727;0.0;;;;NaN;;;;0 / 0;390006;2018-04-04 20:33:52:572
0.316;0.4052;9.5756;0.0;;;;NaN;;;;0 / 0;390506;2018-04-04 20:33:53:072
0.3029;1.1229;9.5223;0.0;;;;NaN;;;;0 / 0;391007;2018-04-04 20:33:53:573
0.4717;0.6458;10.5345;0.0;;;;NaN;;;;0 / 0;391506;2018-04-04 20:33:54:072
0.4758;0.6548;9.4792;0.0;;;;NaN;;;;0 / 0;392006;2018-04-04 20:33:54:572
-0.4274;-0.2903;9.2279;0.0;;;;NaN;;;;0 / 0;392506;2018-04-04 20:33:55:072
0.9756;0.4034;10.8721;0.0;;;;NaN;;;;0 / 0;393007;2018-04-04 20:33:55:573
0.4375;1.2653;10.0969;0.0;;;;NaN;;;;0 / 0;393507;2018-04-04 20:33:56:073
1.0181;0.3855;9.8312;0.0;;;;NaN;;;;0 / 0;394006;2018-04-04 20:33:56:572
-0.1873;1.3336;9.845;0.0;;;;NaN;;;;0 / 0;394506;2018-04-04 20:33:57:072
0.1867;0.6273;9.5732;0.0;;;;NaN;;;;0 / 0;395006;2018-04-04 20:33:57:572
-0.6075;-0.404;10.2232;0.0;;;;NaN;;;;0 / 0;395506;2018-04-04 20:33:58:072
0.4339;0.4968;9.5014;0.0;;;;NaN;;;;0 / 0;396006;2018-04-04 20:33:58:572
-0.6297;-0.1251;9.8593;0.0;;;;NaN;;;;0 / 0;396507;2018-04-04 20:33:59:073
0.8685;0.832;9.5415;0.0;;;;NaN;;;;0 / 0;397007;2018-04-04 20:33:59:573
0.4453;0.7841;9.4798;0.0;;;;NaN;;;;0 / 0;397506;2018-04-04 20:34:00:072
0.5471;0.8547;9.8803;0.0;;;;NaN;;;;0 / 0;398006;2018-04-04 20:34:00:572
0.4357;0.6716;9.414;0.0;;;;NaN;;;;0 / 0;398507;2018-04-04 20:34:01:073
0.3095;-0.0694;9.6486;0.0;;;;NaN;;;;0 / 0;399006;2018-04-04 20:34:01:572
0.2041;0.3334;9.6259;0.0;;;;NaN;;;;0 / 0;399506;2018-04-04 20:34:02:072
-0.0281;0.595;9.9629;0.0;;;;NaN;;;;0 / 0;400007;2018-04-04 20:34:02:573
0.8805;0.6129;9.7258;0.0;;;;NaN;;;;0 / 0;400506;2018-04-04 20:34:03:072
0.9649;0.9786;9.4589;0.0;;;;NaN;;;;0 / 0;401007;2018-04-04 20:34:03:573
0.51;0.328;9.6756;0.0;;;;NaN;;;;0 / 0;401506;2018-04-04 20:34:04:072
0.1383;0.0832;9.6325;0.0;;;;NaN;;;;0 / 0;402006;2018-04-04 20:34:04:572
0.8577;-0.2568;9.505;0.0;;;;NaN;;;;0 / 0;402507;2018-04-04 20:34:05:073
0.4471;0.5189;9.6636;0.0;;;;NaN;;;;0 / 0;403006;2018-04-04 20:34:05:572
0.9595;0.5112;9.8294;0.0;;;;NaN;;;;0 / 0;403507;2018-04-04 20:34:06:073
0.8158;0.8158;9.6175;0.0;;;;NaN;;;;0 / 0;404007;2018-04-04 20:34:06:573
0.5854;0.5225;9.4008;0.0;;;;NaN;;;;0 / 0;404506;2018-04-04 20:34:07:072
0.346;0.2269;9.8282;0.0;;;;NaN;;;;0 / 0;405007;2018-04-04 20:34:07:573
0.1287;0.3011;9.7318;0.0;;;;NaN;;;;0 / 0;405507;2018-04-04 20:34:08:073
0.5064;0.5531;9.5277;0.0;;;;NaN;;;;0 / 0;406006;2018-04-04 20:34:08:572
0.3358;0.6393;9.5888;0.0;;;;NaN;;;;0 / 0;406506;2018-04-04 20:34:09:072
0.4896;0.7817;9.7582;0.0;;;;NaN;;;;0 / 0;407007;2018-04-04 20:34:09:573
0.5195;0.7841;9.5906;0.0;;;;NaN;;;;0 / 0;407506;2018-04-04 20:34:10:072
0.5872;0.3304;9.6462;0.0;;;;NaN;;;;0 / 0;408006;2018-04-04 20:34:10:572
0.2478;0.7027;8.9585;0.0;;;;NaN;;;;0 / 0;408506;2018-04-04 20:34:11:072
0.6901;0.48;9.642;0.0;;;;NaN;;;;0 / 0;409007;2018-04-04 20:34:11:573
0.3717;0.7093;9.6055;0.0;;;;NaN;;;;0 / 0;409507;2018-04-04 20:34:12:073
0.6853;1.136;9.3996;0.0;;;;NaN;;;;0 / 0;410006;2018-04-04 20:34:12:572
1.5101;2.5708;9.651;0.0;;;;NaN;;;;0 / 0;410507;2018-04-04 20:34:13:073
0.3729;0.8888;9.8893;0.0;;;;NaN;;;;0 / 0;411007;2018-04-04 20:34:13:573
0.3729;0.3962;9.8067;0.0;;;;NaN;;;;0 / 0;411506;2018-04-04 20:34:14:072
0.4441;-0.2257;9.4224;0.0;;;;NaN;;;;0 / 0;412007;2018-04-04 20:34:14:573
0.5991;-0.0676;9.5714;0.0;;;;NaN;;;;0 / 0;412506;2018-04-04 20:34:15:072
0.5848;1.3342;9.6097;0.0;;;;NaN;;;;0 / 0;413006;2018-04-04 20:34:15:572
0.729;0.3029;9.5978;0.0;;;;NaN;;;;0 / 0;413506;2018-04-04 20:34:16:072
0.9218;1.0756;9.8384;0.0;;;;NaN;;;;0 / 0;414007;2018-04-04 20:34:16:573
0.6542;0.5722;9.5804;0.0;;;;NaN;;;;0 / 0;414506;2018-04-04 20:34:17:072
-0.1909;-0.4603;9.2686;0.0;;;;NaN;;;;0 / 0;415006;2018-04-04 20:34:17:572
-0.1939;-0.7602;9.6193;0.0;;;;NaN;;;;0 / 0;415506;2018-04-04 20:34:18:072
1.1965;0.6865;10.0784;0.0;;;;NaN;;;;0 / 0;416006;2018-04-04 20:34:18:572
0.6171;0.0036;9.8246;0.0;;;;NaN;;;;0 / 0;416506;2018-04-04 20:34:19:072
1.4395;0.6853;9.5217;0.0;;;;NaN;;;;0 / 0;417006;2018-04-04 20:34:19:572
0.9738;0.7542;9.6145;0.0;;;;NaN;;;;0 / 0;417506;2018-04-04 20:34:20:072
0.0676;0.1544;9.4888;0.0;;;;NaN;;;;0 / 0;418006;2018-04-04 20:34:20:572
0.835;0.4429;9.6097;0.0;;;;NaN;;;;0 / 0;418506;2018-04-04 20:34:21:072
0.8009;0.2167;9.7881;0.0;;;;NaN;;;;0 / 0;419006;2018-04-04 20:34:21:572
1.1714;0.2143;9.5271;0.0;;;;NaN;;;;0 / 0;419506;2018-04-04 20:34:22:072
0.477;-0.2113;9.6181;0.0;;;;NaN;;;;0 / 0;420006;2018-04-04 20:34:22:572
0.7769;-0.018;10.1029;0.0;;;;NaN;;;;0 / 0;420507;2018-04-04 20:34:23:073
0.6632;0.3531;9.6151;0.0;;;;NaN;;;;0 / 0;421007;2018-04-04 20:34:23:573
0.7661;0.0634;9.2428;0.0;;;;NaN;;;;0 / 0;421506;2018-04-04 20:34:24:072
1.4072;0.4351;9.56;0.0;;;;NaN;;;;0 / 0;422006;2018-04-04 20:34:24:572
0.3454;0.4351;9.7103;0.0;;;;NaN;;;;0 / 0;422508;2018-04-04 20:34:25:074
0.5381;1.1193;9.5181;0.0;;;;NaN;;;;0 / 0;423006;2018-04-04 20:34:25:572
1.2498;0.5261;9.5834;0.0;;;;NaN;;;;0 / 0;423506;2018-04-04 20:34:26:072
-0.6021;0.2711;9.4044;0.0;;;;NaN;;;;0 / 0;424006;2018-04-04 20:34:26:572
0.6847;0.1305;9.7893;0.0;;;;NaN;;;;0 / 0;424506;2018-04-04 20:34:27:072
0.8601;-0.1347;9.815;0.0;;;;NaN;;;;0 / 0;425006;2018-04-04 20:34:27:572
0.981;0.1568;9.663;0.0;;;;NaN;;;;0 / 0;425506;2018-04-04 20:34:28:072
0.9667;0.2777;9.839;0.0;;;;NaN;;;;0 / 0;426006;2018-04-04 20:34:28:572
0.662;0.1736;9.3416;0.0;;;;NaN;;;;0 / 0;426506;2018-04-04 20:34:29:072
1.3126;-0.3406;9.9814;0.0;;;;NaN;;;;0 / 0;427006;2018-04-04 20:34:29:572
0.2496;0.1466;9.9066;0.0;;;;NaN;;;;0 / 0;427506;2018-04-04 20:34:30:072
0.6363;0.0168;9.6151;0.0;;;;NaN;;;;0 / 0;428007;2018-04-04 20:34:30:573
0.1652;0.267;9.2913;0.0;;;;NaN;;;;0 / 0;428507;2018-04-04 20:34:31:073
0.5279;0.1113;9.9018;0.0;;;;NaN;;;;0 / 0;429006;2018-04-04 20:34:31:572
0.5944;0.4118;9.6983;0.0;;;;NaN;;;;0 / 0;429506;2018-04-04 20:34:32:072
0.4621;0.5692;9.5523;0.0;;;;NaN;;;;0 / 0;430006;2018-04-04 20:34:32:572
0.8733;0.8745;10.9373;0.0;;;;NaN;;;;0 / 0;430507;2018-04-04 20:34:33:073
0.185;0.3597;9.988;0.0;;;;NaN;;;;0 / 0;431007;2018-04-04 20:34:33:573
1.1696;-0.0449;9.5936;0.0;;;;NaN;;;;0 / 0;431506;2018-04-04 20:34:34:072
0.1891;0.0186;9.9611;0.0;;;;NaN;;;;0 / 0;432007;2018-04-04 20:34:34:573
0.2496;0.7266;9.7091;0.0;;;;NaN;;;;0 / 0;432507;2018-04-04 20:34:35:073
-0.0473;1.4018;9.0112;0.0;;;;NaN;;;;0 / 0;433006;2018-04-04 20:34:35:572
0.8847;0.9301;9.5774;0.0;;;;NaN;;;;0 / 0;433507;2018-04-04 20:34:36:073
0.1317;0.1963;9.9521;0.0;;;;NaN;;;;0 / 0;434007;2018-04-04 20:34:36:573
0.6662;0.6835;9.6863;0.0;;;;NaN;;;;0 / 0;434506;2018-04-04 20:34:37:072
0.4818;0.7632;9.6205;0.0;;;;NaN;;;;0 / 0;435007;2018-04-04 20:34:37:573
0.9673;0.4513;9.3673;0.0;;;;NaN;;;;0 / 0;435507;2018-04-04 20:34:38:073
0.4842;0.4992;9.6349;0.0;;;;NaN;;;;0 / 0;436006;2018-04-04 20:34:38:572
0.6135;1.0876;9.6762;0.0;;;;NaN;;;;0 / 0;436506;2018-04-04 20:34:39:072
0.4663;0.9116;9.6612;0.0;;;;NaN;;;;0 / 0;437007;2018-04-04 20:34:39:573
0.5674;0.5303;9.7306;0.0;;;;NaN;;;;0 / 0;437506;2018-04-04 20:34:40:072
0.4567;0.5285;9.7276;0.0;;;;NaN;;;;0 / 0;438006;2018-04-04 20:34:40:572
0.5447;0.5106;9.6259;0.0;;;;NaN;;;;0 / 0;438506;2018-04-04 20:34:41:072
0.4621;0.416;9.6516;0.0;;;;NaN;;;;0 / 0;439006;2018-04-04 20:34:41:572
0.6584;0.7913;9.651;0.0;;;;NaN;;;;0 / 0;439506;2018-04-04 20:34:42:072
0.6045;0.5932;9.5014;0.0;;;;NaN;;;;0 / 0;440008;2018-04-04 20:34:42:574
0.2167;0.9248;10.1873;0.0;;;;NaN;;;;0 / 0;440506;2018-04-04 20:34:43:072
0.2981;0.3621;9.7588;0.0;;;;NaN;;;;0 / 0;441006;2018-04-04 20:34:43:572
0.5273;0.8236;9.6229;0.0;;;;NaN;;;;0 / 0;441507;2018-04-04 20:34:44:073
0.6632;0.5046;9.3643;0.0;;;;NaN;;;;0 / 0;442006;2018-04-04 20:34:44:572
0.2077;0.7081;9.6624;0.0;;;;NaN;;;;0 / 0;442506;2018-04-04 20:34:45:072
0.513;0.826;9.9371;0.0;;;;NaN;;;;0 / 0;443006;2018-04-04 20:34:45:572
0.6291;0.7572;9.572;0.0;;;;NaN;;;;0 / 0;443507;2018-04-04 20:34:46:073
0.3932;0.738;9.599;0.0;;;;NaN;;;;0 / 0;444006;2018-04-04 20:34:46:572
0.9774;0.929;9.8785;0.0;;;;NaN;;;;0 / 0;444507;2018-04-04 20:34:47:073
0.5986;0.5632;9.6522;0.0;;;;NaN;;;;0 / 0;445006;2018-04-04 20:34:47:572
0.7596;0.5405;9.5984;0.0;;;;NaN;;;;0 / 0;445507;2018-04-04 20:34:48:073
0.583;0.7171;9.6373;0.0;;;;NaN;;;;0 / 0;446006;2018-04-04 20:34:48:572
0.5345;1.0852;9.5966;0.0;;;;NaN;;;;0 / 0;446507;2018-04-04 20:34:49:073
0.5764;0.735;9.6917;0.0;;;;NaN;;;;0 / 0;447007;2018-04-04 20:34:49:573
0.8888;0.9086;9.5732;0.0;;;;NaN;;;;0 / 0;447507;2018-04-04 20:34:50:073
0.091;0.8847;9.1997;0.0;;;;NaN;;;;0 / 0;448006;2018-04-04 20:34:50:572
0.413;0.8056;9.6845;0.0;;;;NaN;;;;0 / 0;448506;2018-04-04 20:34:51:072
0.7422;0.8218;9.5942;0.0;;;;NaN;;;;0 / 0;449006;2018-04-04 20:34:51:572
0.7961;0.8661;9.5792;0.0;;;;NaN;;;;0 / 0;449506;2018-04-04 20:34:52:072
0.2622;0.7943;9.666;0.0;;;;NaN;;;;0 / 0;450006;2018-04-04 20:34:52:572
0.65;0.7733;9.4649;0.0;;;;NaN;;;;0 / 0;450507;2018-04-04 20:34:53:073
0.6183;0.923;9.6486;0.0;;;;NaN;;;;0 / 0;451006;2018-04-04 20:34:53:572
0.5507;0.7997;9.8306;0.0;;;;NaN;;;;0 / 0;451507;2018-04-04 20:34:54:073
-0.1317;0.4495;9.7701;0.0;;;;NaN;;;;0 / 0;452006;2018-04-04 20:34:54:572
0.1407;0.5004;9.6828;0.0;;;;NaN;;;;0 / 0;452506;2018-04-04 20:34:55:072
0.3897;0.6782;9.8839;0.0;;;;NaN;;;;0 / 0;453006;2018-04-04 20:34:55:572
0.4088;0.9732;9.6935;0.0;;;;NaN;;;;0 / 0;453506;2018-04-04 20:34:56:072
0.1951;1.0163;9.6169;0.0;;;;NaN;;;;0 / 0;454006;2018-04-04 20:34:56:572
-0.1;1.0576;9.5954;0.0;;;;NaN;;;;0 / 0;454506;2018-04-04 20:34:57:072
0.4836;1.0259;9.6175;0.0;;;;NaN;;;;0 / 0;455007;2018-04-04 20:34:57:573
0.4543;0.5297;9.7061;0.0;;;;NaN;;;;0 / 0;455507;2018-04-04 20:34:58:073
0.1281;0.3202;9.6055;0.0;;;;NaN;;;;0 / 0;456006;2018-04-04 20:34:58:572
0.2197;0.5213;9.6929;0.0;;;;NaN;;;;0 / 0;456506;2018-04-04 20:34:59:072
0.3436;0.7566;9.5355;0.0;;;;NaN;;;;0 / 0;457007;2018-04-04 20:34:59:573
0.3693;1.0307;9.6109;0.0;;;;NaN;;;;0 / 0;457506;2018-04-04 20:35:00:072
0.3472;0.9206;9.6415;0.0;;;;NaN;;;;0 / 0;458007;2018-04-04 20:35:00:573
0.1873;0.5417;9.751;0.0;;;;NaN;;;;0 / 0;458506;2018-04-04 20:35:01:072
0.246;0.4034;9.8396;0.0;;;;NaN;;;;0 / 0;459006;2018-04-04 20:35:01:572
0.1401;0.416;9.5433;0.0;;;;NaN;;;;0 / 0;459506;2018-04-04 20:35:02:072
0.5237;0.8775;9.6415;0.0;;;;NaN;;;;0 / 0;460006;2018-04-04 20:35:02:572
0.6985;1.1714;9.754;0.0;;;;NaN;;;;0 / 0;460507;2018-04-04 20:35:03:073
0.3831;1.3497;9.5702;0.0;;;;NaN;;;;0 / 0;461006;2018-04-04 20:35:03:572
0.3543;0.4046;9.4655;0.0;;;;NaN;;;;0 / 0;461507;2018-04-04 20:35:04:073
0.1993;0.1921;9.7671;0.0;;;;NaN;;;;0 / 0;462007;2018-04-04 20:35:04:573
0.2179;0.3029;9.7767;0.0;;;;NaN;;;;0 / 0;462506;2018-04-04 20:35:05:072
0.6309;0.5656;9.5786;0.0;;;;NaN;;;;0 / 0;463008;2018-04-04 20:35:05:574
0.3903;0.404;9.6289;0.0;;;;NaN;;;;0 / 0;463506;2018-04-04 20:35:06:072
0.4298;0.7123;9.7223;0.0;;;;NaN;;;;0 / 0;464007;2018-04-04 20:35:06:573
0.647;0.756;9.6199;0.0;;;;NaN;;;;0 / 0;464507;2018-04-04 20:35:07:073
0.3717;0.1425;9.6486;0.0;;;;NaN;;;;0 / 0;465006;2018-04-04 20:35:07:572
0.0479;0.0784;9.6049;0.0;;;;NaN;;;;0 / 0;465506;2018-04-04 20:35:08:072
0.7123;0.6111;9.5846;0.0;;;;NaN;;;;0 / 0;466007;2018-04-04 20:35:08:573
0.5339;0.8326;9.5702;0.0;;;;NaN;;;;0 / 0;466506;2018-04-04 20:35:09:072
1.0816;0.3885;9.7085;0.0;;;;NaN;;;;0 / 0;467006;2018-04-04 20:35:09:572
0.9679;1.5826;9.575;0.0;;;;NaN;;;;0 / 0;467506;2018-04-04 20:35:10:072
0.6572;0.6812;9.7701;0.0;;;;NaN;;;;0 / 0;468007;2018-04-04 20:35:10:573
0.0826;0.3657;9.6415;0.0;;;;NaN;;;;0 / 0;468506;2018-04-04 20:35:11:072
0.1532;0.2484;9.5403;0.0;;;;NaN;;;;0 / 0;469007;2018-04-04 20:35:11:573
0.4148;0.5991;9.651;0.0;;;;NaN;;;;0 / 0;469507;2018-04-04 20:35:12:073
-0.0078;0.6865;10.3525;0.0;;;;NaN;;;;0 / 0;470007;2018-04-04 20:35:12:573
0.0024;0.7278;9.8096;0.0;;;;NaN;;;;0 / 0;470506;2018-04-04 20:35:13:072
0.1891;0.4968;9.8701;0.0;;;;NaN;;;;0 / 0;471006;2018-04-04 20:35:13:572
-0.2364;0.4549;9.7941;0.0;;;;NaN;;;;0 / 0;471507;2018-04-04 20:35:14:073
0.2682;0.7057;9.6666;0.0;;;;NaN;;;;0 / 0;472007;2018-04-04 20:35:14:573
0.258;0.8416;9.5301;0.0;;;;NaN;;;;0 / 0;472506;2018-04-04 20:35:15:072
0.0407;0.6746;9.7151;0.0;;;;NaN;;;;0 / 0;473006;2018-04-04 20:35:15:572
0.3226;0.6518;9.7881;0.0;;;;NaN;;;;0 / 0;473507;2018-04-04 20:35:16:073
0.2969;0.492;9.675;0.0;;;;NaN;;;;0 / 0;474007;2018-04-04 20:35:16:573
0.3998;0.3017;9.66;0.0;;;;NaN;;;;0 / 0;474506;2018-04-04 20:35:17:072
0.1945;0.8326;9.5044;0.0;;;;NaN;;;;0 / 0;475007;2018-04-04 20:35:17:573
0.498;0.3292;9.6486;0.0;;;;NaN;;;;0 / 0;475506;2018-04-04 20:35:18:072
0.1006;0.7111;9.7246;0.0;;;;NaN;;;;0 / 0;476006;2018-04-04 20:35:18:572
-0.3011;0.1293;9.8408;0.0;;;;NaN;;;;0 / 0;476506;2018-04-04 20:35:19:072
0.2586;0.4962;9.6367;0.0;;;;NaN;;;;0 / 0;477007;2018-04-04 20:35:19:573
0.5974;0.4669;9.8485;0.0;;;;NaN;;;;0 / 0;477506;2018-04-04 20:35:20:072
-0.0593;0.2035;9.6833;0.0;;;;NaN;;;;0 / 0;478006;2018-04-04 20:35:20:572
0.7763;0.4914;9.4834;0.0;;;;NaN;;;;0 / 0;478506;2018-04-04 20:35:21:072
0.4298;0.7452;9.5648;0.0;;;;NaN;;;;0 / 0;479006;2018-04-04 20:35:21:572
0.5519;0.2292;9.6313;0.0;;;;NaN;;;;0 / 0;479506;2018-04-04 20:35:22:072
0.6925;0.9427;9.7504;0.0;;;;NaN;;;;0 / 0;480006;2018-04-04 20:35:22:572
1.2019;1.7615;9.3182;0.0;;;;NaN;;;;0 / 0;480506;2018-04-04 20:35:23:072
0.6464;0.3292;9.6612;0.0;;;;NaN;;;;0 / 0;481006;2018-04-04 20:35:23:572
1.1355;0.9242;9.5074;0.0;;;;NaN;;;;0 / 0;481507;2018-04-04 20:35:24:073
0.6937;0.738;9.7181;0.0;;;;NaN;;;;0 / 0;482006;2018-04-04 20:35:24:572
0.8775;0.8326;9.4338;0.0;;;;NaN;;;;0 / 0;482507;2018-04-04 20:35:25:073
0.89;0.5997;9.6516;0.0;;;;NaN;;;;0 / 0;483006;2018-04-04 20:35:25:572
0.7201;1.1103;9.6397;0.0;;;;NaN;;;;0 / 0;483507;2018-04-04 20:35:26:073
0.8224;1.3425;9.5427;0.0;;;;NaN;;;;0 / 0;484006;2018-04-04 20:35:26:572
0.981;1.2989;9.6193;0.0;;;;NaN;;;;0 / 0;484506;2018-04-04 20:35:27:072
1.0505;0.3466;9.8186;0.0;;;;NaN;;;;0 / 0;485007;2018-04-04 20:35:27:573
0.6859;0.4262;9.7115;0.0;;;;NaN;;;;0 / 0;485506;2018-04-04 20:35:28:072
0.4178;0.9272;9.5469;0.0;;;;NaN;;;;0 / 0;486006;2018-04-04 20:35:28:572
0.9325;0.8835;9.5624;0.0;;;;NaN;;;;0 / 0;486507;2018-04-04 20:35:29:073
0.7955;0.9798;9.5547;0.0;;;;NaN;;;;0 / 0;487006;2018-04-04 20:35:29:572
0.7266;0.6752;9.4685;0.0;;;;NaN;;;;0 / 0;487507;2018-04-04 20:35:30:073
0.3998;0.7733;9.8922;0.0;;;;NaN;;;;0 / 0;488007;2018-04-04 20:35:30:573
0.1041;0.3915;9.8072;0.0;;;;NaN;;;;0 / 0;488506;2018-04-04 20:35:31:072
0.6027;-0.0497;9.2482;0.0;;;;NaN;;;;0 / 0;489006;2018-04-04 20:35:31:572
0.7308;0.5225;9.6738;0.0;;;;NaN;;;;0 / 0;489507;2018-04-04 20:35:32:073
0.9278;0.6895;9.5636;0.0;;;;NaN;;;;0 / 0;490006;2018-04-04 20:35:32:572
1.2366;1.342;9.5379;0.0;;;;NaN;;;;0 / 0;490506;2018-04-04 20:35:33:072
0.6722;1.1217;9.7312;0.0;;;;NaN;;;;0 / 0;491007;2018-04-04 20:35:33:573
0.0036;0.4573;9.6983;0.0;;;;NaN;;;;0 / 0;491508;2018-04-04 20:35:34:074
0.1119;0.4914;9.6624;0.0;;;;NaN;;;;0 / 0;492007;2018-04-04 20:35:34:573
0.5309;0.2137;9.432;0.0;;;;NaN;;;;0 / 0;492506;2018-04-04 20:35:35:072
1.0319;0.337;9.7378;0.0;;;;NaN;;;;0 / 0;493006;2018-04-04 20:35:35:572
0.595;0.911;9.663;0.0;;;;NaN;;;;0 / 0;493507;2018-04-04 20:35:36:073
0.9391;1.3892;9.4972;0.0;;;;NaN;;;;0 / 0;494006;2018-04-04 20:35:36:572
0.5393;0.5016;9.6013;0.0;;;;NaN;;;;0 / 0;494507;2018-04-04 20:35:37:073
-0.1006;0.3077;9.6355;0.0;;;;NaN;;;;0 / 0;495007;2018-04-04 20:35:37:573
0.2771;-0.0186;9.7474;0.0;;;;NaN;;;;0 / 0;495507;2018-04-04 20:35:38:073
1.0032;0.2221;9.5205;0.0;;;;NaN;;;;0 / 0;496006;2018-04-04 20:35:38:572
0.4489;1.0421;9.4122;0.0;;;;NaN;;;;0 / 0;496506;2018-04-04 20:35:39:072
-0.1945;0.3837;9.675;0.0;;;;NaN;;;;0 / 0;497007;2018-04-04 20:35:39:573
0.4812;0.3956;8.0834;0.0;;;;NaN;;;;0 / 0;497506;2018-04-04 20:35:40:072
0.4705;0.2125;9.7121;0.0;;;;NaN;;;;0 / 0;498007;2018-04-04 20:35:40:573
0.4477;-0.0126;9.5972;0.0;;;;NaN;;;;0 / 0;498506;2018-04-04 20:35:41:072
0.659;0.726;9.6169;0.0;;;;NaN;;;;0 / 0;499007;2018-04-04 20:35:41:573
0.8709;0.8368;9.7163;0.0;;;;NaN;;;;0 / 0;499506;2018-04-04 20:35:42:072
0.8434;0.8936;9.8162;0.0;;;;NaN;;;;0 / 0;500006;2018-04-04 20:35:42:572
0.7482;0.5303;9.6319;0.0;;;;NaN;;;;0 / 0;500507;2018-04-04 20:35:43:073
-0.176;0.4268;9.4326;0.0;;;;NaN;;;;0 / 0;501006;2018-04-04 20:35:43:572
0.1323;0.425;9.8126;0.0;;;;NaN;;;;0 / 0;501506;2018-04-04 20:35:44:072
0.267;0.9379;9.6409;0.0;;;;NaN;;;;0 / 0;502006;2018-04-04 20:35:44:572
0.6782;0.8338;9.6253;0.0;;;;NaN;;;;0 / 0;502506;2018-04-04 20:35:45:072
0.7326;1.4377;9.748;0.0;;;;NaN;;;;0 / 0;503007;2018-04-04 20:35:45:573
0.7596;0.8978;9.6211;0.0;;;;NaN;;;;0 / 0;503507;2018-04-04 20:35:46:073
0.4543;0.7171;9.5002;0.0;;;;NaN;;;;0 / 0;504006;2018-04-04 20:35:46:572
0.4507;0.4148;9.7516;0.0;;;;NaN;;;;0 / 0;504506;2018-04-04 20:35:47:072
0.58;0.7823;9.7235;0.0;;;;NaN;;;;0 / 0;505007;2018-04-04 20:35:47:573
-0.5171;0.4633;9.9467;0.0;;;;NaN;;;;0 / 0;505506;2018-04-04 20:35:48:072
0.3962;0.4717;9.5451;0.0;;;;NaN;;;;0 / 0;506007;2018-04-04 20:35:48:573
0.6937;1.3036;9.7444;0.0;;;;NaN;;;;0 / 0;506506;2018-04-04 20:35:49:072
0.4375;1.0606;9.6792;0.0;;;;NaN;;;;0 / 0;507007;2018-04-04 20:35:49:573
0.0383;0.2322;9.6091;0.0;;;;NaN;;;;0 / 0;507506;2018-04-04 20:35:50:072
0.2304;0.3005;9.4948;0.0;;;;NaN;;;;0 / 0;508007;2018-04-04 20:35:50:573
-0.0174;0.5046;9.5295;0.0;;;;NaN;;;;0 / 0;508506;2018-04-04 20:35:51:072
0.5991;1.0307;9.6576;0.0;;;;NaN;;;;0 / 0;509006;2018-04-04 20:35:51:572
0.6428;0.9708;9.7761;0.0;;;;NaN;;;;0 / 0;509506;2018-04-04 20:35:52:072
0.6644;0.7859;9.5265;0.0;;;;NaN;;;;0 / 0;510007;2018-04-04 20:35:52:573
0.2436;0.7189;9.7863;0.0;;;;NaN;;;;0 / 0;510506;2018-04-04 20:35:53:072
0.1448;0.6907;9.815;0.0;;;;NaN;;;;0 / 0;511006;2018-04-04 20:35:53:572
0.3897;0.2029;9.821;0.0;;;;NaN;;;;0 / 0;511506;2018-04-04 20:35:54:072
0.2807;0.7769;9.7127;0.0;;;;NaN;;;;0 / 0;512007;2018-04-04 20:35:54:573
0.325;0.9194;9.7743;0.0;;;;NaN;;;;0 / 0;512506;2018-04-04 20:35:55:072
0.4806;1.1402;9.5211;0.0;;;;NaN;;;;0 / 0;513006;2018-04-04 20:35:55:572
0.4286;0.7063;9.3709;0.0;;;;NaN;;;;0 / 0;513506;2018-04-04 20:35:56:072
0.0491;0.4405;9.4709;0.0;;;;NaN;;;;0 / 0;514006;2018-04-04 20:35:56:572
-0.0365;0.1861;9.5852;0.0;;;;NaN;;;;0 / 0;514506;2018-04-04 20:35:57:072
0.3418;0.6626;9.6678;0.0;;;;NaN;;;;0 / 0;515007;2018-04-04 20:35:57:573
-0.5728;0.1317;9.5762;0.0;;;;NaN;;;;0 / 0;515506;2018-04-04 20:35:58:072
0.5788;0.6889;9.7749;0.0;;;;NaN;;;;0 / 0;516006;2018-04-04 20:35:58:572
0.3154;0.6584;9.6995;0.0;;;;NaN;;;;0 / 0;516507;2018-04-04 20:35:59:073
0.4292;0.6261;9.6229;0.0;;;;NaN;;;;0 / 0;517006;2018-04-04 20:35:59:572
0.2873;0.4675;9.6474;0.0;;;;NaN;;;;0 / 0;517506;2018-04-04 20:36:00:072
-0.2616;0.3035;9.6432;0.0;;;;NaN;;;;0 / 0;518006;2018-04-04 20:36:00:572
-0.0838;0.8176;9.6804;0.0;;;;NaN;;;;0 / 0;518506;2018-04-04 20:36:01:072
0.5537;0.8499;9.6492;0.0;;;;NaN;;;;0 / 0;519006;2018-04-04 20:36:01:572
0.3208;0.8404;9.6917;0.0;;;;NaN;;;;0 / 0;519506;2018-04-04 20:36:02:072
0.6608;0.8033;9.7073;0.0;;;;NaN;;;;0 / 0;520007;2018-04-04 20:36:02:573
0.3352;0.6464;9.7552;0.0;;;;NaN;;;;0 / 0;520506;2018-04-04 20:36:03:072
0.2801;0.7123;9.6438;0.0;;;;NaN;;;;0 / 0;521006;2018-04-04 20:36:03:572
0.2897;0.4519;9.6941;0.0;;;;NaN;;;;0 / 0;521506;2018-04-04 20:36:04:072
0.2544;0.6165;9.9509;0.0;;;;NaN;;;;0 / 0;522006;2018-04-04 20:36:04:572
0.4896;0.7386;9.5864;0.0;;;;NaN;;;;0 / 0;522506;2018-04-04 20:36:05:072
0.3142;0.6428;9.5523;0.0;;;;NaN;;;;0 / 0;523006;2018-04-04 20:36:05:572
0.2041;0.3765;9.6756;0.0;;;;NaN;;;;0 / 0;523507;2018-04-04 20:36:06:073
0.0682;0.3639;9.7707;0.0;;;;NaN;;;;0 / 0;524007;2018-04-04 20:36:06:573
0.4381;0.2245;9.654;0.0;;;;NaN;;;;0 / 0;524506;2018-04-04 20:36:07:072
0.2753;0.5088;9.5367;0.0;;;;NaN;;;;0 / 0;525006;2018-04-04 20:36:07:572
0.3154;0.4399;9.8731;0.0;;;;NaN;;;;0 / 0;525507;2018-04-04 20:36:08:073
0.4238;0.7673;10.2699;0.0;;;;NaN;;;;0 / 0;526006;2018-04-04 20:36:08:572
0.4226;0.8062;9.8396;0.0;;;;NaN;;;;0 / 0;526506;2018-04-04 20:36:09:072
0.3651;0.7482;9.5972;0.0;;;;NaN;;;;0 / 0;527007;2018-04-04 20:36:09:573
0.2119;0.7685;9.5253;0.0;;;;NaN;;;;0 / 0;527506;2018-04-04 20:36:10:072
0.3394;0.6087;9.7462;0.0;;;;NaN;;;;0 / 0;528006;2018-04-04 20:36:10:572
0.4322;1.0056;9.6187;0.0;;;;NaN;;;;0 / 0;528506;2018-04-04 20:36:11:072
0.3585;0.7488;10.0389;0.0;;;;NaN;;;;0 / 0;529006;2018-04-04 20:36:11:572
0.234;0.5297;9.8749;0.0;;;;NaN;;;;0 / 0;529506;2018-04-04 20:36:12:072
0.2011;0.2322;9.8108;0.0;;;;NaN;;;;0 / 0;530006;2018-04-04 20:36:12:572
0.2286;0.6201;9.3272;0.0;;;;NaN;;;;0 / 0;530506;2018-04-04 20:36:13:072
0.2723;0.2041;9.7755;0.0;;;;NaN;;;;0 / 0;531006;2018-04-04 20:36:13:572
0.1377;1.3114;9.8581;0.0;;;;NaN;;;;0 / 0;531506;2018-04-04 20:36:14:072
0.4651;0.8128;9.6947;0.0;;;;NaN;;;;0 / 0;532007;2018-04-04 20:36:14:573
0.5213;0.7793;9.3422;0.0;;;;NaN;;;;0 / 0;532506;2018-04-04 20:36:15:072
0.5788;1.0732;9.4655;0.0;;;;NaN;;;;0 / 0;533006;2018-04-04 20:36:15:572
0.5549;0.8739;9.3673;0.0;;;;NaN;;;;0 / 0;533507;2018-04-04 20:36:16:073
0.659;1.4305;9.5954;0.0;;;;NaN;;;;0 / 0;534006;2018-04-04 20:36:16:572
-0.2358;0.1532;9.6031;0.0;;;;NaN;;;;0 / 0;534507;2018-04-04 20:36:17:073
-0.3484;0.6303;9.824;0.0;;;;NaN;;;;0 / 0;535006;2018-04-04 20:36:17:572
0.1945;0.4274;9.7432;0.0;;;;NaN;;;;0 / 0;535507;2018-04-04 20:36:18:073
-0.1113;0.6099;9.511;0.0;;;;NaN;;;;0 / 0;536006;2018-04-04 20:36:18:572
-0.1053;1.0924;10.0006;0.0;;;;NaN;;;;0 / 0;536506;2018-04-04 20:36:19:072
0.346;0.5165;9.3679;0.0;;;;NaN;;;;0 / 0;537006;2018-04-04 20:36:19:572
0.0072;0.6889;9.5253;0.0;;;;NaN;;;;0 / 0;537506;2018-04-04 20:36:20:072
-0.2119;0.4064;9.6343;0.0;;;;NaN;;;;0 / 0;538006;2018-04-04 20:36:20:572
0.2352;0.6381;9.7318;0.0;;;;NaN;;;;0 / 0;538507;2018-04-04 20:36:21:073
0.6967;0.4519;9.6013;0.0;;;;NaN;;;;0 / 0;539006;2018-04-04 20:36:21:572
0.3376;0.7033;9.6139;0.0;;;;NaN;;;;0 / 0;539507;2018-04-04 20:36:22:073
0.4567;0.9882;9.675;0.0;;;;NaN;;;;0 / 0;540006;2018-04-04 20:36:22:572
-0.6087;0.5561;9.7474;0.0;;;;NaN;;;;0 / 0;540506;2018-04-04 20:36:23:072
0.2131;0.6596;9.0926;0.0;;;;NaN;;;;0 / 0;541006;2018-04-04 20:36:23:572
0.3496;0.1616;9.9174;0.0;;;;NaN;;;;0 / 0;541506;2018-04-04 20:36:24:072
0.2466;0.7374;9.6379;0.0;;;;NaN;;;;0 / 0;542006;2018-04-04 20:36:24:572
0.4345;0.9068;9.9317;0.0;;;;NaN;;;;0 / 0;542508;2018-04-04 20:36:25:074
0.2532;0.5991;9.6379;0.0;;;;NaN;;;;0 / 0;543007;2018-04-04 20:36:25:573
0.097;1.0415;9.7235;0.0;;;;NaN;;;;0 / 0;543507;2018-04-04 20:36:26:073
0.161;0.6991;9.8031;0.0;;;;NaN;;;;0 / 0;544006;2018-04-04 20:36:26:572
-0.2532;0.3795;9.5074;0.0;;;;NaN;;;;0 / 0;544506;2018-04-04 20:36:27:072
0.2783;0.8003;9.5762;0.0;;;;NaN;;;;0 / 0;545007;2018-04-04 20:36:27:573
0.185;0.5453;9.5044;0.0;;;;NaN;;;;0 / 0;545506;2018-04-04 20:36:28:072
0.1592;0.9122;9.7282;0.0;;;;NaN;;;;0 / 0;546006;2018-04-04 20:36:28:572
-0.2945;1.3898;9.7917;0.0;;;;NaN;;;;0 / 0;546507;2018-04-04 20:36:29:073
0.1826;0.8517;9.6504;0.0;;;;NaN;;;;0 / 0;547006;2018-04-04 20:36:29:572
0.0724;0.4699;9.6295;0.0;;;;NaN;;;;0 / 0;547506;2018-04-04 20:36:30:072
-0.2879;0.3753;9.7241;0.0;;;;NaN;;;;0 / 0;548007;2018-04-04 20:36:30:573
-0.1101;0.6752;9.751;0.0;;;;NaN;;;;0 / 0;548506;2018-04-04 20:36:31:072
0.6674;0.7105;9.6067;0.0;;;;NaN;;;;0 / 0;549006;2018-04-04 20:36:31:572
0.3771;1.0427;9.5014;0.0;;;;NaN;;;;0 / 0;549507;2018-04-04 20:36:32:073
0.2478;1.0469;9.6367;0.0;;;;NaN;;;;0 / 0;550006;2018-04-04 20:36:32:572
-0.2472;0.9643;9.7713;0.0;;;;NaN;;;;0 / 0;550506;2018-04-04 20:36:33:072
0.3747;-0.2394;9.8078;0.0;;;;NaN;;;;0 / 0;551006;2018-04-04 20:36:33:572
-0.653;0.811;9.5205;0.0;;;;NaN;;;;0 / 0;551507;2018-04-04 20:36:34:073
0.9876;1.1618;9.4978;0.0;;;;NaN;;;;0 / 0;552006;2018-04-04 20:36:34:572
0.015;1.4222;9.5409;0.0;;;;NaN;;;;0 / 0;552507;2018-04-04 20:36:35:073
0.9667;-1.242;9.6971;0.0;;;;NaN;;;;0 / 0;553006;2018-04-04 20:36:35:572
0.8422;-0.4651;9.973;0.0;;;;NaN;;;;0 / 0;553506;2018-04-04 20:36:36:072
-0.1544;0.1796;9.678;0.0;;;;NaN;;;;0 / 0;554006;2018-04-04 20:36:36:572
-0.085;0.0215;9.7073;0.0;;;;NaN;;;;0 / 0;554507;2018-04-04 20:36:37:073
0.1233;0.2137;9.7241;0.0;;;;NaN;;;;0 / 0;555006;2018-04-04 20:36:37:572
0.2101;0.2418;9.6935;0.0;;;;NaN;;;;0 / 0;555506;2018-04-04 20:36:38:072
0.0407;0.7512;9.4559;0.0;;;;NaN;;;;0 / 0;556007;2018-04-04 20:36:38:573
-0.1329;0.3944;9.6923;0.0;;;;NaN;;;;0 / 0;556506;2018-04-04 20:36:39:072
-0.2945;-0.3316;9.7342;0.0;;;;NaN;;;;0 / 0;557006;2018-04-04 20:36:39:572
-0.2771;-0.0048;9.7043;0.0;;;;NaN;;;;0 / 0;557506;2018-04-04 20:36:40:072
-0.2328;0.1221;9.657;0.0;;;;NaN;;;;0 / 0;558006;2018-04-04 20:36:40:572
-0.0126;0.5746;9.5343;0.0;;;;NaN;;;;0 / 0;558506;2018-04-04 20:36:41:072
0.0239;0.4752;9.8958;0.0;;;;NaN;;;;0 / 0;559006;2018-04-04 20:36:41:572
-0.4034;0.2005;10.0054;0.0;;;;NaN;;;;0 / 0;559507;2018-04-04 20:36:42:073
0.4507;-0.0934;9.0555;0.0;;;;NaN;;;;0 / 0;560006;2018-04-04 20:36:42:572
-0.6123;-0.7278;9.736;0.0;;;;NaN;;;;0 / 0;560507;2018-04-04 20:36:43:073
-0.3885;-1.0038;9.3535;0.0;;;;NaN;;;;0 / 0;561006;2018-04-04 20:36:43:572
0.2137;0.5962;9.6558;0.0;;;;NaN;;;;0 / 0;561506;2018-04-04 20:36:44:072
0.2915;0.5578;9.7187;0.0;;;;NaN;;;;0 / 0;562006;2018-04-04 20:36:44:572
0.3286;0.5201;9.7522;0.0;;;;NaN;;;;0 / 0;562507;2018-04-04 20:36:45:073
0.0162;0.1443;9.5152;0.0;;;;NaN;;;;0 / 0;563006;2018-04-04 20:36:45:572
-0.3077;0.0084;9.6313;0.0;;;;NaN;;;;0 / 0;563506;2018-04-04 20:36:46:072
-0.0652;0.1024;9.7414;0.0;;;;NaN;;;;0 / 0;564006;2018-04-04 20:36:46:572
0.1155;0.6782;9.6043;0.0;;;;NaN;;;;0 / 0;564506;2018-04-04 20:36:47:072
0.5261;0.5321;9.6301;0.0;;;;NaN;;;;0 / 0;565006;2018-04-04 20:36:47:572
0.1083;0.5734;9.7306;0.0;;;;NaN;;;;0 / 0;565507;2018-04-04 20:36:48:073
-0.0976;0.4351;9.6139;0.0;;;;NaN;;;;0 / 0;566006;2018-04-04 20:36:48:572
0.0832;-0.1502;9.6923;0.0;;;;NaN;;;;0 / 0;566506;2018-04-04 20:36:49:072
-0.2897;0.3244;9.8426;0.0;;;;NaN;;;;0 / 0;567006;2018-04-04 20:36:49:572
-0.2849;0.1784;9.6187;0.0;;;;NaN;;;;0 / 0;567506;2018-04-04 20:36:50:072
-0.0168;0.4441;9.484;0.0;;;;NaN;;;;0 / 0;568006;2018-04-04 20:36:50:572
0.1706;0.8068;9.7612;0.0;;;;NaN;;;;0 / 0;568506;2018-04-04 20:36:51:072
-0.0605;0.4304;9.6959;0.0;;;;NaN;;;;0 / 0;569009;2018-04-04 20:36:51:575
-0.1365;0.2472;9.6409;0.0;;;;NaN;;;;0 / 0;569506;2018-04-04 20:36:52:072
-0.2813;0.0658;9.6217;0.0;;;;NaN;;;;0 / 0;570006;2018-04-04 20:36:52:572
-0.1652;0.2861;9.6307;0.0;;;;NaN;;;;0 / 0;570506;2018-04-04 20:36:53:072
-0.076;0.4681;9.8958;0.0;;;;NaN;;;;0 / 0;571006;2018-04-04 20:36:53:572
0.0467;0.5656;9.7683;0.0;;;;NaN;;;;0 / 0;571506;2018-04-04 20:36:54:072
0.152;0.7033;9.7713;0.0;;;;NaN;;;;0 / 0;572007;2018-04-04 20:36:54:573
-0.1832;0.4866;9.6504;0.0;;;;NaN;;;;0 / 0;572506;2018-04-04 20:36:55:072
-0.6452;0.2664;9.6313;0.0;;;;NaN;;;;0 / 0;573006;2018-04-04 20:36:55:572
-0.4543;0.3537;9.5738;0.0;;;;NaN;;;;0 / 0;573506;2018-04-04 20:36:56:072
-0.0096;0.3238;9.6079;0.0;;;;NaN;;;;0 / 0;574006;2018-04-04 20:36:56:572
0.2568;0.0946;9.481;0.0;;;;NaN;;;;0 / 0;574507;2018-04-04 20:36:57:073
-0.0563;0.3118;9.3583;0.0;;;;NaN;;;;0 / 0;575006;2018-04-04 20:36:57:572
-0.0563;0.3118;9.3583;0.0;;;;NaN;;;;0 / 0;575507;2018-04-04 20:36:58:073
-0.1814;0.1305;9.9778;0.0;;;;NaN;;;;0 / 0;576006;2018-04-04 20:36:58:572
-0.3879;0.8553;9.5092;0.0;;;;NaN;;;;0 / 0;576506;2018-04-04 20:36:59:072
-0.1419;0.9547;10.2933;0.0;;;;NaN;;;;0 / 0;577006;2018-04-04 20:36:59:572
-0.3909;0.9295;10.0012;0.0;;;;NaN;;;;0 / 0;577506;2018-04-04 20:37:00:072
-0.2083;0.2795;9.3805;0.0;;;;NaN;;;;0 / 0;578007;2018-04-04 20:37:00:573
-0.1335;1.0247;9.9114;0.0;;;;NaN;;;;0 / 0;578506;2018-04-04 20:37:01:072
-0.3017;1.0965;9.8414;0.0;;;;NaN;;;;0 / 0;579006;2018-04-04 20:37:01:572
-0.1861;0.641;9.7438;0.0;;;;NaN;;;;0 / 0;579506;2018-04-04 20:37:02:072
-0.1215;0.2364;9.4547;0.0;;;;NaN;;;;0 / 0;580006;2018-04-04 20:37:02:572
-0.1592;-0.574;9.1476;0.0;;;;NaN;;;;0 / 0;580506;2018-04-04 20:37:03:072
0.2777;0.2071;9.5158;0.0;;;;NaN;;;;0 / 0;581007;2018-04-04 20:37:03:573
0.2646;-0.0617;9.7127;0.0;;;;NaN;;;;0 / 0;581506;2018-04-04 20:37:04:072
0.2879;-0.3364;9.5924;0.0;;;;NaN;;;;0 / 0;582006;2018-04-04 20:37:04:572
0.3136;-0.6602;10.0467;0.0;;;;NaN;;;;0 / 0;582506;2018-04-04 20:37:05:072
-0.07;-0.8607;9.9635;0.0;;;;NaN;;;;0 / 0;583007;2018-04-04 20:37:05:573
-0.4148;0.4788;10.1197;0.0;;;;NaN;;;;0 / 0;583506;2018-04-04 20:37:06:072
0.3184;0.3903;9.5882;0.0;;;;NaN;;;;0 / 0;584006;2018-04-04 20:37:06:572
0.3615;-0.4938;9.8222;0.0;;;;NaN;;;;0 / 0;584506;2018-04-04 20:37:07:072
-0.4381;0.7661;9.2973;0.0;;;;NaN;;;;0 / 0;585006;2018-04-04 20:37:07:572
-0.1191;0.1269;9.5385;0.0;;;;NaN;;;;0 / 0;585506;2018-04-04 20:37:08:072
-0.3579;-0.1053;9.396;0.0;;;;NaN;;;;0 / 0;586007;2018-04-04 20:37:08:573
-0.0599;0.5728;9.66;0.0;;;;NaN;;;;0 / 0;586506;2018-04-04 20:37:09:072
-0.0365;-0.006;9.7612;0.0;;;;NaN;;;;0 / 0;587006;2018-04-04 20:37:09:572
-0.0557;0.1951;9.845;0.0;;;;NaN;;;;0 / 0;587507;2018-04-04 20:37:10:073
0.3106;0.0305;9.6911;0.0;;;;NaN;;;;0 / 0;588007;2018-04-04 20:37:10:573
-0.0341;0.5567;9.7989;0.0;;;;NaN;;;;0 / 0;588506;2018-04-04 20:37:11:072
0.4519;0.4848;9.6343;0.0;;;;NaN;;;;0 / 0;589006;2018-04-04 20:37:11:572
0.4339;0.097;9.4709;0.0;;;;NaN;;;;0 / 0;589507;2018-04-04 20:37:12:073
0.255;-0.1095;9.5798;0.0;;;;NaN;;;;0 / 0;590007;2018-04-04 20:37:12:573
0.1478;-0.149;9.736;0.0;;;;NaN;;;;0 / 0;590507;2018-04-04 20:37:13:073
0.2496;0.1323;9.8001;0.0;;;;NaN;;;;0 / 0;591006;2018-04-04 20:37:13:572
0.2125;0.0275;9.4697;0.0;;;;NaN;;;;0 / 0;591506;2018-04-04 20:37:14:072
0.2987;0.0838;9.4816;0.0;;;;NaN;;;;0 / 0;592007;2018-04-04 20:37:14:573
0.0916;0.2227;9.7863;0.0;;;;NaN;;;;0 / 0;592506;2018-04-04 20:37:15:072
0.0976;-0.7961;9.7085;0.0;;;;NaN;;;;0 / 0;593006;2018-04-04 20:37:15:572
0.3735;-0.9565;9.9461;0.0;;;;NaN;;;;0 / 0;593507;2018-04-04 20:37:16:073
0.2197;-0.2622;9.6049;0.0;;;;NaN;;;;0 / 0;594006;2018-04-04 20:37:16:572
0.0838;0.4776;9.672;0.0;;;;NaN;;;;0 / 0;594506;2018-04-04 20:37:17:072
0.2005;-0.3089;9.7318;0.0;;;;NaN;;;;0 / 0;595006;2018-04-04 20:37:17:572
-0.3436;-0.5142;9.7085;0.0;;;;NaN;;;;0 / 0;595507;2018-04-04 20:37:18:073
-0.1838;-0.3118;9.7235;0.0;;;;NaN;;;;0 / 0;596006;2018-04-04 20:37:18:572
-0.1993;-0.1526;9.9401;0.0;;;;NaN;;;;0 / 0;596506;2018-04-04 20:37:19:072
-0.173;-0.1981;9.5056;0.0;;;;NaN;;;;0 / 0;597006;2018-04-04 20:37:19:572
-0.1664;-0.0832;9.6211;0.0;;;;NaN;;;;0 / 0;597507;2018-04-04 20:37:20:073
-0.0958;-0.3454;9.6953;0.0;;;;NaN;;;;0 / 0;598006;2018-04-04 20:37:20:572
-0.5489;-0.1885;9.6025;0.0;;;;NaN;;;;0 / 0;598506;2018-04-04 20:37:21:072
0.0748;0.3106;9.8186;0.0;;;;NaN;;;;0 / 0;599006;2018-04-04 20:37:21:572
0.2185;-0.2837;9.5481;0.0;;;;NaN;;;;0 / 0;599506;2018-04-04 20:37:22:072
0.1305;-0.641;9.6678;0.0;;;;NaN;;;;0 / 0;600007;2018-04-04 20:37:22:573
0.1622;-0.4597;9.736;0.0;;;;NaN;;;;0 / 0;600506;2018-04-04 20:37:23:072
0.0293;-0.422;9.663;0.0;;;;NaN;;;;0 / 0;601006;2018-04-04 20:37:23:572
0.2029;-0.2245;9.6432;0.0;;;;NaN;;;;0 / 0;601506;2018-04-04 20:37:24:072
0.1419;-0.1873;9.6642;0.0;;;;NaN;;;;0 / 0;602006;2018-04-04 20:37:24:572
0.167;-0.337;9.6205;0.0;;;;NaN;;;;0 / 0;602506;2018-04-04 20:37:25:072
0.1053;-0.1897;9.4338;0.0;;;;NaN;;;;0 / 0;603007;2018-04-04 20:37:25:573
-0.1018;-0.4561;9.5565;0.0;;;;NaN;;;;0 / 0;603506;2018-04-04 20:37:26:072
0.0838;-0.2418;9.7384;0.0;;;;NaN;;;;0 / 0;604007;2018-04-04 20:37:26:573
0.0539;-0.3029;9.7492;0.0;;;;NaN;;;;0 / 0;604506;2018-04-04 20:37:27:072
0.2466;-0.2765;9.66;0.0;;;;NaN;;;;0 / 0;605006;2018-04-04 20:37:27:572
0.1305;-0.4435;9.5211;0.0;;;;NaN;;;;0 / 0;605506;2018-04-04 20:37:28:072
0.0706;-0.2454;9.7791;0.0;;;;NaN;;;;0 / 0;606006;2018-04-04 20:37:28:572
-0.5052;-0.1688;10.7554;0.0;;;;NaN;;;;0 / 0;606506;2018-04-04 20:37:29:072
-0.677;0.3304;9.681;0.0;;;;NaN;;;;0 / 0;607006;2018-04-04 20:37:29:572
-0.0413;0.0832;9.742;0.0;;;;NaN;;;;0 / 0;607506;2018-04-04 20:37:30:072
-0.2059;-0.0395;9.6002;0.0;;;;NaN;;;;0 / 0;608006;2018-04-04 20:37:30:572
-0.2568;-0.158;9.575;0.0;;;;NaN;;;;0 / 0;608506;2018-04-04 20:37:31:072
-0.0527;-0.2616;9.4218;0.0;;;;NaN;;;;0 / 0;609007;2018-04-04 20:37:31:573
-0.0796;-0.1891;9.5936;0.0;;;;NaN;;;;0 / 0;609506;2018-04-04 20:37:32:072
-0.4884;-0.8416;10.0892;0.0;;;;NaN;;;;0 / 0;610006;2018-04-04 20:37:32:572
-0.158;-0.152;10.3172;0.0;;;;NaN;;;;0 / 0;610507;2018-04-04 20:37:33:073
-0.3023;-0.073;9.6343;0.0;;;;NaN;;;;0 / 0;611006;2018-04-04 20:37:33:572
-0.31;-0.4148;9.6504;0.0;;;;NaN;;;;0 / 0;611506;2018-04-04 20:37:34:072
-0.8775;-0.2592;9.903;0.0;;;;NaN;;;;0 / 0;612006;2018-04-04 20:37:34:572
-0.1718;-0.2514;9.7935;0.0;;;;NaN;;;;0 / 0;612506;2018-04-04 20:37:35:072
-0.3519;-0.3065;9.4541;0.0;;;;NaN;;;;0 / 0;613007;2018-04-04 20:37:35:573
-0.1083;-0.5046;9.5331;0.0;;;;NaN;;;;0 / 0;613506;2018-04-04 20:37:36:072
-0.6895;-0.3262;9.5571;0.0;;;;NaN;;;;0 / 0;614007;2018-04-04 20:37:36:573
-0.3005;-0.4758;10.0652;0.0;;;;NaN;;;;0 / 0;614506;2018-04-04 20:37:37:072
-0.5183;-0.574;9.5642;0.0;;;;NaN;;;;0 / 0;615006;2018-04-04 20:37:37:572
-0.6931;-0.5495;9.6025;0.0;;;;NaN;;;;0 / 0;615506;2018-04-04 20:37:38:072
-1.0672;-0.2083;9.9898;0.0;;;;NaN;;;;0 / 0;616006;2018-04-04 20:37:38:572
-0.7865;-0.2101;9.5259;0.0;;;;NaN;;;;0 / 0;616506;2018-04-04 20:37:39:072
-0.3543;-0.3837;9.5247;0.0;;;;NaN;;;;0 / 0;617007;2018-04-04 20:37:39:573
-0.6165;-0.4339;9.7139;0.0;;;;NaN;;;;0 / 0;617506;2018-04-04 20:37:40:072
-0.5351;-0.1239;9.8378;0.0;;;;NaN;;;;0 / 0;618006;2018-04-04 20:37:40:572
-0.6823;-0.2664;9.6025;0.0;;;;NaN;;;;0 / 0;618506;2018-04-04 20:37:41:072
0.3502;-1.1959;9.7851;0.0;;;;NaN;;;;0 / 0;619006;2018-04-04 20:37:41:572
-0.659;-0.4513;9.7031;0.0;;;;NaN;;;;0 / 0;619507;2018-04-04 20:37:42:073
-0.8871;-0.4172;9.7372;0.0;;;;NaN;;;;0 / 0;620007;2018-04-04 20:37:42:573
-0.6638;-0.316;9.5529;0.0;;;;NaN;;;;0 / 0;620506;2018-04-04 20:37:43:072
-0.7476;-0.1676;9.581;0.0;;;;NaN;;;;0 / 0;621006;2018-04-04 20:37:43:572
-0.6309;-0.5555;9.5253;0.0;;;;NaN;;;;0 / 0;621507;2018-04-04 20:37:44:073
-0.8033;-0.3047;9.5487;0.0;;;;NaN;;;;0 / 0;622006;2018-04-04 20:37:44:572
-0.5997;-0.422;9.7115;0.0;;;;NaN;;;;0 / 0;622506;2018-04-04 20:37:45:072
-0.4142;-0.161;10.1047;0.0;;;;NaN;;;;0 / 0;623006;2018-04-04 20:37:45:572
0.2652;-0.3735;9.6109;0.0;;;;NaN;;;;0 / 0;623506;2018-04-04 20:37:46:072
-0.1939;-0.5716;9.6277;0.0;;;;NaN;;;;0 / 0;624006;2018-04-04 20:37:46:572
0.0652;-0.7362;9.6193;0.0;;;;NaN;;;;0 / 0;624506;2018-04-04 20:37:47:072
0.0682;-0.5991;9.5559;0.0;;;;NaN;;;;0 / 0;625007;2018-04-04 20:37:47:573
-0.0664;-0.6219;9.8252;0.0;;;;NaN;;;;0 / 0;625506;2018-04-04 20:37:48:072
0.1778;-0.419;9.4745;0.0;;;;NaN;;;;0 / 0;626006;2018-04-04 20:37:48:572
0.012;0.0299;9.3571;0.0;;;;NaN;;;;0 / 0;626506;2018-04-04 20:37:49:072
-0.0018;-1.0415;9.5445;0.0;;;;NaN;;;;0 / 0;627006;2018-04-04 20:37:49:572
-0.234;-0.7476;9.7749;0.0;;;;NaN;;;;0 / 0;627506;2018-04-04 20:37:50:072
-0.2364;-1.0463;9.4637;0.0;;;;NaN;;;;0 / 0;628007;2018-04-04 20:37:50:573
-0.4268;-0.7967;9.4864;0.0;;;;NaN;;;;0 / 0;628506;2018-04-04 20:37:51:072
-0.0168;-0.3699;9.7372;0.0;;;;NaN;;;;0 / 0;629006;2018-04-04 20:37:51:572
-0.0904;-0.2747;9.7121;0.0;;;;NaN;;;;0 / 0;629506;2018-04-04 20:37:52:072
-0.6476;-0.562;9.6031;0.0;;;;NaN;;;;0 / 0;630006;2018-04-04 20:37:52:572
-0.8649;-0.6806;9.6995;0.0;;;;NaN;;;;0 / 0;630506;2018-04-04 20:37:53:072
-0.9972;-0.6608;9.7007;0.0;;;;NaN;;;;0 / 0;631006;2018-04-04 20:37:53:572
-0.6422;1.8346;10.1484;0.0;;;;NaN;;;;0 / 0;631506;2018-04-04 20:37:54:072
-0.2508;0.9068;9.6444;0.0;;;;NaN;;;;0 / 0;632006;2018-04-04 20:37:54:572
-0.2514;1.005;9.6905;0.0;;;;NaN;;;;0 / 0;632507;2018-04-04 20:37:55:073
-0.9786;0.8763;9.5277;0.0;;;;NaN;;;;0 / 0;633006;2018-04-04 20:37:55:572
-0.993;0.1431;9.5559;0.0;;;;NaN;;;;0 / 0;633506;2018-04-04 20:37:56:072
-1.1839;0.1754;9.654;0.0;;;;NaN;;;;0 / 0;634006;2018-04-04 20:37:56:572
-0.3304;-0.0359;9.7396;0.0;;;;NaN;;;;0 / 0;634506;2018-04-04 20:37:57:072
-0.9655;-0.3759;9.8258;0.0;;;;NaN;;;;0 / 0;635006;2018-04-04 20:37:57:572
-0.8948;-1.2767;9.5517;0.0;;;;NaN;;;;0 / 0;635507;2018-04-04 20:37:58:073
-0.6225;-0.4938;9.7043;0.0;;;;NaN;;;;0 / 0;636006;2018-04-04 20:37:58:572
-0.4836;-0.6075;9.6899;0.0;;;;NaN;;;;0 / 0;636506;2018-04-04 20:37:59:072
-0.5692;-0.6602;9.5433;0.0;;;;NaN;;;;0 / 0;637006;2018-04-04 20:37:59:572
-0.3208;-0.811;9.7588;0.0;;;;NaN;;;;0 / 0;637506;2018-04-04 20:38:00:072
-0.568;-0.4812;9.6181;0.0;;;;NaN;;;;0 / 0;638007;2018-04-04 20:38:00:573
-0.2155;-0.5417;9.839;0.0;;;;NaN;;;;0 / 0;638506;2018-04-04 20:38:01:072
-0.2855;-0.3226;9.6121;0.0;;;;NaN;;;;0 / 0;639006;2018-04-04 20:38:01:572
-0.1155;-0.5022;9.4469;0.0;;;;NaN;;;;0 / 0;639507;2018-04-04 20:38:02:073
-0.4824;-0.5525;9.6415;0.0;;;;NaN;;;;0 / 0;640006;2018-04-04 20:38:02:572
0.3118;-0.4172;9.7869;0.0;;;;NaN;;;;0 / 0;640507;2018-04-04 20:38:03:073
0.6931;0.516;9.5343;0.0;;;;NaN;;;;0 / 0;641006;2018-04-04 20:38:03:572
0.6111;0.6871;9.6869;0.0;;;;NaN;;;;0 / 0;641506;2018-04-04 20:38:04:072
0.8469;1.248;9.7707;0.0;;;;NaN;;;;0 / 0;642007;2018-04-04 20:38:04:573
-0.1024;0.3789;9.5744;0.0;;;;NaN;;;;0 / 0;642507;2018-04-04 20:38:05:073
-0.1718;0.0545;9.5187;0.0;;;;NaN;;;;0 / 0;643006;2018-04-04 20:38:05:572
-0.395;0.2155;9.9078;0.0;;;;NaN;;;;0 / 0;643506;2018-04-04 20:38:06:072
-0.4513;0.3352;9.8384;0.0;;;;NaN;;;;0 / 0;644011;2018-04-04 20:38:06:577
0.3364;0.2179;9.4625;0.0;;;;NaN;;;;0 / 0;644507;2018-04-04 20:38:07:073
-0.0485;0.3645;9.593;0.0;;;;NaN;;;;0 / 0;645006;2018-04-04 20:38:07:572
-0.2945;0.5878;9.7444;0.0;;;;NaN;;;;0 / 0;645507;2018-04-04 20:38:08:073
-0.3765;0.5555;9.7151;0.0;;;;NaN;;;;0 / 0;646006;2018-04-04 20:38:08:572
-0.1676;0.2801;9.6786;0.0;;;;NaN;;;;0 / 0;646507;2018-04-04 20:38:09:073
-0.3639;0.1933;9.6696;0.0;;;;NaN;;;;0 / 0;647006;2018-04-04 20:38:09:572
-0.4112;0.5315;9.6115;0.0;;;;NaN;;;;0 / 0;647507;2018-04-04 20:38:10:073
-0.2352;0.6177;9.6355;0.0;;;;NaN;;;;0 / 0;648006;2018-04-04 20:38:10:572
0.0192;0.6231;9.6732;0.0;;;;NaN;;;;0 / 0;648506;2018-04-04 20:38:11:072
-0.2035;0.4758;9.575;0.0;;;;NaN;;;;0 / 0;649007;2018-04-04 20:38:11:573
-0.1622;0.4447;9.593;0.0;;;;NaN;;;;0 / 0;649506;2018-04-04 20:38:12:072
-0.4357;0.3759;9.7408;0.0;;;;NaN;;;;0 / 0;650006;2018-04-04 20:38:12:572
-0.2263;0.4986;9.7791;0.0;;;;NaN;;;;0 / 0;650507;2018-04-04 20:38:13:073
-0.0162;0.6075;9.6007;0.0;;;;NaN;;;;0 / 0;651006;2018-04-04 20:38:13:572
-0.07;0.5842;9.5714;0.0;;;;NaN;;;;0 / 0;651507;2018-04-04 20:38:14:073
-0.2915;0.3897;9.6223;0.0;;;;NaN;;;;0 / 0;652006;2018-04-04 20:38:14:572
-0.322;0.5225;9.7199;0.0;;;;NaN;;;;0 / 0;652507;2018-04-04 20:38:15:073
-0.2999;0.3926;9.7043;0.0;;;;NaN;;;;0 / 0;653006;2018-04-04 20:38:15:572
-0.2143;0.5345;9.7145;0.0;;;;NaN;;;;0 / 0;653506;2018-04-04 20:38:16:072
-0.0838;0.5477;9.6863;0.0;;;;NaN;;;;0 / 0;654006;2018-04-04 20:38:16:572
0.1227;0.0622;9.6744;0.0;;;;NaN;;;;0 / 0;654506;2018-04-04 20:38:17:072
-0.5573;0.3579;9.6205;0.0;;;;NaN;;;;0 / 0;655007;2018-04-04 20:38:17:573
-0.5483;0.5471;9.581;0.0;;;;NaN;;;;0 / 0;655506;2018-04-04 20:38:18:072
-0.0928;0.2699;9.818;0.0;;;;NaN;;;;0 / 0;656006;2018-04-04 20:38:18:572
-0.2987;0.9367;9.6373;0.0;;;;NaN;;;;0 / 0;656506;2018-04-04 20:38:19:072
-0.3112;0.744;9.7223;0.0;;;;NaN;;;;0 / 0;657006;2018-04-04 20:38:19:572
-0.2292;0.5758;9.6851;0.0;;;;NaN;;;;0 / 0;657506;2018-04-04 20:38:20:072
-0.3633;0.5926;9.657;0.0;;;;NaN;;;;0 / 0;658006;2018-04-04 20:38:20:572
-0.0994;-0.0575;9.5702;0.0;;;;NaN;;;;0 / 0;658506;2018-04-04 20:38:21:072
-0.2999;0.4058;9.6373;0.0;;;;NaN;;;;0 / 0;659007;2018-04-04 20:38:21:573
-0.0748;0.4202;9.8306;0.0;;;;NaN;;;;0 / 0;659507;2018-04-04 20:38:22:073
-0.0365;0.8122;9.7402;0.0;;;;NaN;;;;0 / 0;660006;2018-04-04 20:38:22:572
0.2526;0.3232;9.5511;0.0;;;;NaN;;;;0 / 0;660506;2018-04-04 20:38:23:072
-0.325;-0.0341;9.4068;0.0;;;;NaN;;;;0 / 0;661006;2018-04-04 20:38:23:572
-0.586;-0.5363;9.596;0.0;;;;NaN;;;;0 / 0;661506;2018-04-04 20:38:24:072
-0.4992;0.0305;9.8144;0.0;;;;NaN;;;;0 / 0;662006;2018-04-04 20:38:24:572
-0.0856;0.167;9.8396;0.0;;;;NaN;;;;0 / 0;662506;2018-04-04 20:38:25:072
0.1748;0.4441;9.66;0.0;;;;NaN;;;;0 / 0;663007;2018-04-04 20:38:25:573
-0.1754;0.5471;9.7007;0.0;;;;NaN;;;;0 / 0;663506;2018-04-04 20:38:26:072
-0.3843;0.3555;9.6642;0.0;;;;NaN;;;;0 / 0;664007;2018-04-04 20:38:26:573
-0.4351;0.0976;9.657;0.0;;;;NaN;;;;0 / 0;664506;2018-04-04 20:38:27:072
-0.2975;-0.2825;9.7953;0.0;;;;NaN;;;;0 / 0;665006;2018-04-04 20:38:27:572
0.2502;-0.4872;9.9042;0.0;;;;NaN;;;;0 / 0;665507;2018-04-04 20:38:28:073
0.4884;-0.1472;9.6923;0.0;;;;NaN;;;;0 / 0;666006;2018-04-04 20:38:28:572
0.2777;-0.2658;9.6259;0.0;;;;NaN;;;;0 / 0;666507;2018-04-04 20:38:29:073
0.2376;-0.3106;9.4194;0.0;;;;NaN;;;;0 / 0;667007;2018-04-04 20:38:29:573
6.0E-4;-0.7434;9.578;0.0;;;;NaN;;;;0 / 0;667507;2018-04-04 20:38:30:073
-0.3382;-0.3352;9.5253;0.0;;;;NaN;;;;0 / 0;668006;2018-04-04 20:38:30:572
-0.2801;-0.3591;9.7187;0.0;;;;NaN;;;;0 / 0;668506;2018-04-04 20:38:31:072
0.4687;-0.5417;9.6732;0.0;;;;NaN;;;;0 / 0;669007;2018-04-04 20:38:31:573
0.1329;-0.2227;9.5331;0.0;;;;NaN;;;;0 / 0;669506;2018-04-04 20:38:32:072
-0.2011;-0.5411;9.8108;0.0;;;;NaN;;;;0 / 0;670007;2018-04-04 20:38:32:573
-0.5662;-0.3478;9.6432;0.0;;;;NaN;;;;0 / 0;670506;2018-04-04 20:38:33:072
-0.4693;-0.5788;9.5481;0.0;;;;NaN;;;;0 / 0;671007;2018-04-04 20:38:33:573
-0.1419;-0.2927;9.5373;0.0;;;;NaN;;;;0 / 0;671506;2018-04-04 20:38:34:072
-0.0533;-0.1802;9.5618;0.0;;;;NaN;;;;0 / 0;672006;2018-04-04 20:38:34:572
0.0874;-0.1664;9.6337;0.0;;;;NaN;;;;0 / 0;672507;2018-04-04 20:38:35:073
0.0748;-6.0E-4;9.6582;0.0;;;;NaN;;;;0 / 0;673006;2018-04-04 20:38:35:572
-0.6925;-0.644;9.93;0.0;;;;NaN;;;;0 / 0;673507;2018-04-04 20:38:36:073
0.1784;-0.3891;9.5726;0.0;;;;NaN;;;;0 / 0;674006;2018-04-04 20:38:36:572
0.4615;-0.7225;9.4517;0.0;;;;NaN;;;;0 / 0;674507;2018-04-04 20:38:37:073
0.4914;-0.4639;9.5966;0.0;;;;NaN;;;;0 / 0;675006;2018-04-04 20:38:37:572
1.0822;-0.1784;9.6163;0.0;;;;NaN;;;;0 / 0;675506;2018-04-04 20:38:38:072
0.1903;1.2881;10.2651;0.0;;;;NaN;;;;0 / 0;676006;2018-04-04 20:38:38:572
-0.7027;1.4928;8.6562;0.0;;;;NaN;;;;0 / 0;676507;2018-04-04 20:38:39:073
-2.1823;3.2669;6.4141;0.0;;;;NaN;;;;0 / 0;677006;2018-04-04 20:38:39:572
-0.4316;2.2075;9.7211;0.0;;;;NaN;;;;0 / 0;677506;2018-04-04 20:38:40:072
-1.5856;2.3571;10.5405;0.0;;;;NaN;;;;0 / 0;678006;2018-04-04 20:38:40:572
-2.3038;0.2215;9.8887;0.0;;;;NaN;;;;0 / 0;678506;2018-04-04 20:38:41:072
-3.9049;1.8411;9.0656;0.0;;;;NaN;;;;0 / 0;679007;2018-04-04 20:38:41:573
-1.8435;2.2751;8.7478;0.0;;;;NaN;;;;0 / 0;679506;2018-04-04 20:38:42:072
-1.0906;1.5293;9.2566;0.0;;;;NaN;;;;0 / 0;680006;2018-04-04 20:38:42:572
2.5343;0.808;9.678;0.0;;;;NaN;;;;0 / 0;680506;2018-04-04 20:38:43:072
1.0912;1.4072;10.061;0.0;;;;NaN;;;;0 / 0;681006;2018-04-04 20:38:43:572
0.1856;1.4299;9.1327;0.0;;;;NaN;;;;0 / 0;681507;2018-04-04 20:38:44:073
0.9523;0.7302;9.2392;0.0;;;;NaN;;;;0 / 0;682006;2018-04-04 20:38:44:572
1.3976;0.1514;9.6205;0.0;;;;NaN;;;;0 / 0;682506;2018-04-04 20:38:45:072
3.6188;0.1317;9.168;0.0;;;;NaN;;;;0 / 0;683007;2018-04-04 20:38:45:573
1.9692;0.3394;9.2368;0.0;;;;NaN;;;;0 / 0;683506;2018-04-04 20:38:46:072
2.4361;-1.2977;9.1046;0.0;;;;NaN;;;;0 / 0;684006;2018-04-04 20:38:46:572
2.2823;-1.3605;9.0944;0.0;;;;NaN;;;;0 / 0;684506;2018-04-04 20:38:47:072
2.7216;-1.2857;9.1931;0.0;;;;NaN;;;;0 / 0;685007;2018-04-04 20:38:47:573
2.4876;-1.1965;9.3081;0.0;;;;NaN;;;;0 / 0;685506;2018-04-04 20:38:48:072
2.2978;-1.4551;9.235;0.0;;;;NaN;;;;0 / 0;686006;2018-04-04 20:38:48:572
2.2787;-1.3761;9.2009;0.0;;;;NaN;;;;0 / 0;686506;2018-04-04 20:38:49:072
2.4271;-1.2983;9.2201;0.0;;;;NaN;;;;0 / 0;687006;2018-04-04 20:38:49:572
2.2356;-1.1929;9.3003;0.0;;;;NaN;;;;0 / 0;687506;2018-04-04 20:38:50:072
2.2835;-1.3886;9.1752;0.0;;;;NaN;;;;0 / 0;688007;2018-04-04 20:38:50:573
2.4289;-1.4269;9.2662;0.0;;;;NaN;;;;0 / 0;688506;2018-04-04 20:38:51:072
2.4385;-1.2929;9.2572;0.0;;;;NaN;;;;0 / 0;689007;2018-04-04 20:38:51:573
2.3727;-1.251;9.2596;0.0;;;;NaN;;;;0 / 0;689506;2018-04-04 20:38:52:072
2.2691;-1.385;9.3757;0.0;;;;NaN;;;;0 / 0;690007;2018-04-04 20:38:52:573
2.2523;-1.3922;9.2093;0.0;;;;NaN;;;;0 / 0;690506;2018-04-04 20:38:53:072
2.214;-1.3018;9.1488;0.0;;;;NaN;;;;0 / 0;691007;2018-04-04 20:38:53:573
2.3373;-1.3156;9.2692;0.0;;;;NaN;;;;0 / 0;691506;2018-04-04 20:38:54:072
2.463;-1.3569;9.3727;0.0;;;;NaN;;;;0 / 0;692007;2018-04-04 20:38:54:573
2.4696;-1.3803;9.3033;0.0;;;;NaN;;;;0 / 0;692506;2018-04-04 20:38:55:072
2.3463;-1.3443;9.2051;0.0;;;;NaN;;;;0 / 0;693007;2018-04-04 20:38:55:573
2.2464;-1.2917;9.2476;0.0;;;;NaN;;;;0 / 0;693507;2018-04-04 20:38:56:073
2.2482;-1.3168;9.3506;0.0;;;;NaN;;;;0 / 0;694006;2018-04-04 20:38:56:572
2.2482;-1.336;9.2428;0.0;;;;NaN;;;;0 / 0;694506;2018-04-04 20:38:57:072
2.3505;-1.3719;9.2524;0.0;;;;NaN;;;;0 / 0;695006;2018-04-04 20:38:57:572
2.5079;-1.3222;9.1872;0.0;;;;NaN;;;;0 / 0;695506;2018-04-04 20:38:58:072
2.4822;-1.3024;9.2243;0.0;;;;NaN;;;;0 / 0;696007;2018-04-04 20:38:58:573
2.3134;-1.3294;9.3146;0.0;;;;NaN;;;;0 / 0;696507;2018-04-04 20:38:59:073
2.1458;-1.3102;9.2715;0.0;;;;NaN;;;;0 / 0;697006;2018-04-04 20:38:59:572
2.1961;-1.3126;9.1973;0.0;;;;NaN;;;;0 / 0;697506;2018-04-04 20:39:00:072
2.3697;-1.3689;9.0555;0.0;;;;NaN;;;;0 / 0;698007;2018-04-04 20:39:00:573
2.548;-1.3066;9.2177;0.0;;;;NaN;;;;0 / 0;698506;2018-04-04 20:39:01:072
2.5438;-1.2797;9.3673;0.0;;;;NaN;;;;0 / 0;699007;2018-04-04 20:39:01:573
2.3828;-1.3324;9.1644;0.0;;;;NaN;;;;0 / 0;699506;2018-04-04 20:39:02:072
2.15;-1.3988;9.0842;0.0;;;;NaN;;;;0 / 0;700006;2018-04-04 20:39:02:572
2.1829;-1.3204;9.3392;0.0;;;;NaN;;;;0 / 0;700506;2018-04-04 20:39:03:072
2.3888;-1.2701;9.329;0.0;;;;NaN;;;;0 / 0;701006;2018-04-04 20:39:03:572
2.5295;-1.2923;9.3416;0.0;;;;NaN;;;;0 / 0;701506;2018-04-04 20:39:04:072
2.5361;-1.3982;9.2781;0.0;;;;NaN;;;;0 / 0;702008;2018-04-04 20:39:04:574
2.4038;-1.3461;9.3972;0.0;;;;NaN;;;;0 / 0;702506;2018-04-04 20:39:05:072
2.2075;-1.2863;9.3643;0.0;;;;NaN;;;;0 / 0;703006;2018-04-04 20:39:05:572
2.1739;-1.3198;9.1423;0.0;;;;NaN;;;;0 / 0;703507;2018-04-04 20:39:06:073
2.3014;-1.3515;9.265;0.0;;;;NaN;;;;0 / 0;704006;2018-04-04 20:39:06:572
2.3918;-1.3342;9.3637;0.0;;;;NaN;;;;0 / 0;704506;2018-04-04 20:39:07:072
2.5881;-1.2755;9.2225;0.0;;;;NaN;;;;0 / 0;705007;2018-04-04 20:39:07:573
2.487;-1.3449;9.1734;0.0;;;;NaN;;;;0 / 0;705506;2018-04-04 20:39:08:072
2.2236;-1.3288;9.3212;0.0;;;;NaN;;;;0 / 0;706006;2018-04-04 20:39:08:572
2.1656;-1.2605;9.3111;0.0;;;;NaN;;;;0 / 0;706507;2018-04-04 20:39:09:073
2.1715;-1.3425;9.1943;0.0;;;;NaN;;;;0 / 0;707006;2018-04-04 20:39:09:572
2.375;-1.4204;9.1943;0.0;;;;NaN;;;;0 / 0;707506;2018-04-04 20:39:10:072
2.4624;-1.3611;9.2608;0.0;;;;NaN;;;;0 / 0;708007;2018-04-04 20:39:10:573
2.5367;-1.2588;9.3254;0.0;;;;NaN;;;;0 / 0;708506;2018-04-04 20:39:11:072
2.1859;-1.409;9.1195;0.0;;;;NaN;;;;0 / 0;709006;2018-04-04 20:39:11:572
2.0836;-1.3515;9.1955;0.0;;;;NaN;;;;0 / 0;709508;2018-04-04 20:39:12:074
2.226;-1.2384;9.3176;0.0;;;;NaN;;;;0 / 0;710006;2018-04-04 20:39:12:572
2.329;-1.3001;9.2614;0.0;;;;NaN;;;;0 / 0;710506;2018-04-04 20:39:13:072
2.3942;-1.3408;9.2213;0.0;;;;NaN;;;;0 / 0;711006;2018-04-04 20:39:13:572
2.663;-1.3641;9.1955;0.0;;;;NaN;;;;0 / 0;711507;2018-04-04 20:39:14:073
2.5067;-1.2779;9.1453;0.0;;;;NaN;;;;0 / 0;712006;2018-04-04 20:39:14:572
2.1787;-1.2546;9.3075;0.0;;;;NaN;;;;0 / 0;712507;2018-04-04 20:39:15:073
2.0788;-1.3354;9.4559;0.0;;;;NaN;;;;0 / 0;713006;2018-04-04 20:39:15:572
2.2278;-1.3886;9.2332;0.0;;;;NaN;;;;0 / 0;713506;2018-04-04 20:39:16:072
2.4337;-1.3659;9.1087;0.0;;;;NaN;;;;0 / 0;714006;2018-04-04 20:39:16:572
2.5211;-1.3144;9.2829;0.0;;;;NaN;;;;0 / 0;714506;2018-04-04 20:39:17:072
2.2727;-1.2671;9.2476;0.0;;;;NaN;;;;0 / 0;715007;2018-04-04 20:39:17:573
2.0117;-1.339;9.2524;0.0;;;;NaN;;;;0 / 0;715506;2018-04-04 20:39:18:072
1.9986;-1.3581;9.4152;0.0;;;;NaN;;;;0 / 0;716007;2018-04-04 20:39:18:573
2.2559;-1.3527;9.3416;0.0;;;;NaN;;;;0 / 0;716506;2018-04-04 20:39:19:072
2.4696;-1.3156;9.1506;0.0;;;;NaN;;;;0 / 0;717006;2018-04-04 20:39:19:572
2.5696;-1.3102;9.1925;0.0;;;;NaN;;;;0 / 0;717506;2018-04-04 20:39:20:072
2.308;-1.2486;9.3613;0.0;;;;NaN;;;;0 / 0;718006;2018-04-04 20:39:20:572
1.9519;-1.2462;9.3314;0.0;;;;NaN;;;;0 / 0;718506;2018-04-04 20:39:21:072
1.9064;-1.3354;9.2069;0.0;;;;NaN;;;;0 / 0;719006;2018-04-04 20:39:21:572
2.0877;-1.3048;9.3045;0.0;;;;NaN;;;;0 / 0;719507;2018-04-04 20:39:22:073
2.4505;-1.2983;9.3134;0.0;;;;NaN;;;;0 / 0;720006;2018-04-04 20:39:22:572
2.566;-1.2983;9.253;0.0;;;;NaN;;;;0 / 0;720506;2018-04-04 20:39:23:072
2.3691;-1.3072;9.2099;0.0;;;;NaN;;;;0 / 0;721006;2018-04-04 20:39:23:572
2.1117;-1.3007;9.4218;0.0;;;;NaN;;;;0 / 0;721506;2018-04-04 20:39:24:072
2.0219;-1.2797;9.3236;0.0;;;;NaN;;;;0 / 0;722006;2018-04-04 20:39:24:572
2.0782;-1.3408;9.2488;0.0;;;;NaN;;;;0 / 0;722506;2018-04-04 20:39:25:072
2.1189;-0.9888;9.4661;0.0;;;;NaN;;;;0 / 0;723006;2018-04-04 20:39:25:572
2.4535;-1.3737;9.2692;0.0;;;;NaN;;;;0 / 0;723506;2018-04-04 20:39:26:072
2.3661;-1.2617;9.2075;0.0;;;;NaN;;;;0 / 0;724007;2018-04-04 20:39:26:573
2.3314;-1.2564;9.1824;0.0;;;;NaN;;;;0 / 0;724506;2018-04-04 20:39:27:072
2.2799;-1.3156;9.32;0.0;;;;NaN;;;;0 / 0;725006;2018-04-04 20:39:27:572
2.059;-1.2438;9.1004;0.0;;;;NaN;;;;0 / 0;725506;2018-04-04 20:39:28:072
2.0812;-1.3366;9.2219;0.0;;;;NaN;;;;0 / 0;726007;2018-04-04 20:39:28:573
2.1674;-1.2462;9.1297;0.0;;;;NaN;;;;0 / 0;726506;2018-04-04 20:39:29:072
2.3547;-1.3084;9.2871;0.0;;;;NaN;;;;0 / 0;727006;2018-04-04 20:39:29:572
2.4008;-1.2935;9.2853;0.0;;;;NaN;;;;0 / 0;727506;2018-04-04 20:39:30:072
2.3583;-1.3018;9.2362;0.0;;;;NaN;;;;0 / 0;728009;2018-04-04 20:39:30:575
2.3978;-1.309;9.256;0.0;;;;NaN;;;;0 / 0;728506;2018-04-04 20:39:31:072
2.4271;-1.3443;9.2775;0.0;;;;NaN;;;;0 / 0;729006;2018-04-04 20:39:31:572
2.4301;-1.2875;9.2692;0.0;;;;NaN;;;;0 / 0;729506;2018-04-04 20:39:32:072
2.2314;-1.2456;9.1626;0.0;;;;NaN;;;;0 / 0;730006;2018-04-04 20:39:32:572
2.0895;-1.2953;9.1536;0.0;;;;NaN;;;;0 / 0;730506;2018-04-04 20:39:33:072
2.2847;-1.336;9.3488;0.0;;;;NaN;;;;0 / 0;731006;2018-04-04 20:39:33:572
2.5618;-1.2857;9.3841;0.0;;;;NaN;;;;0 / 0;731506;2018-04-04 20:39:34:072
2.49;-1.3001;9.2308;0.0;;;;NaN;;;;0 / 0;732007;2018-04-04 20:39:34:573
2.3038;-1.333;9.2081;0.0;;;;NaN;;;;0 / 0;732506;2018-04-04 20:39:35:072
2.1889;-1.2941;9.2757;0.0;;;;NaN;;;;0 / 0;733006;2018-04-04 20:39:35:572
2.1638;-1.2887;9.2668;0.0;;;;NaN;;;;0 / 0;733507;2018-04-04 20:39:36:073
2.3038;-1.33;9.2452;0.0;;;;NaN;;;;0 / 0;734006;2018-04-04 20:39:36:572
2.3912;-1.2923;9.1913;0.0;;;;NaN;;;;0 / 0;734506;2018-04-04 20:39:37:072
2.405;-1.2923;9.2901;0.0;;;;NaN;;;;0 / 0;735006;2018-04-04 20:39:37:572
2.3385;-1.3108;9.3033;0.0;;;;NaN;;;;0 / 0;735507;2018-04-04 20:39:38:073
2.1177;-1.3066;9.2835;0.0;;;;NaN;;;;0 / 0;736007;2018-04-04 20:39:38:573
1.9543;-1.3108;9.2279;0.0;;;;NaN;;;;0 / 0;736507;2018-04-04 20:39:39:073
1.9273;-1.2402;9.2566;0.0;;;;NaN;;;;0 / 0;737006;2018-04-04 20:39:39:572
2.1602;-1.236;9.4505;0.0;;;;NaN;;;;0 / 0;737507;2018-04-04 20:39:40:073
2.3972;-1.3695;9.3715;0.0;;;;NaN;;;;0 / 0;738006;2018-04-04 20:39:40:572
2.2667;-1.3629;9.1973;0.0;;;;NaN;;;;0 / 0;738507;2018-04-04 20:39:41:073
2.0225;-1.1953;9.329;0.0;;;;NaN;;;;0 / 0;739006;2018-04-04 20:39:41:572
1.9908;-1.309;9.3039;0.0;;;;NaN;;;;0 / 0;739507;2018-04-04 20:39:42:073
1.9561;-1.3665;9.2979;0.0;;;;NaN;;;;0 / 0;740006;2018-04-04 20:39:42:572
2.1117;-1.3378;9.3164;0.0;;;;NaN;;;;0 / 0;740506;2018-04-04 20:39:43:072
2.2535;-1.239;9.3655;0.0;;;;NaN;;;;0 / 0;741006;2018-04-04 20:39:43:572
2.3278;-1.2552;9.4254;0.0;;;;NaN;;;;0 / 0;741507;2018-04-04 20:39:44:073
2.047;-1.3539;9.3128;0.0;;;;NaN;;;;0 / 0;742007;2018-04-04 20:39:44:573
1.8711;-1.5137;9.1488;0.0;;;;NaN;;;;0 / 0;742507;2018-04-04 20:39:45:073
1.9728;-1.3144;9.3625;0.0;;;;NaN;;;;0 / 0;743006;2018-04-04 20:39:45:572
2.0458;-1.2851;9.4852;0.0;;;;NaN;;;;0 / 0;743506;2018-04-04 20:39:46:072
2.0901;-1.2935;9.2039;0.0;;;;NaN;;;;0 / 0;744006;2018-04-04 20:39:46:572
2.3577;-1.2809;9.3787;0.0;;;;NaN;;;;0 / 0;744507;2018-04-04 20:39:47:073
2.2709;-1.3593;9.2308;0.0;;;;NaN;;;;0 / 0;745006;2018-04-04 20:39:47:572
2.2176;-1.3264;9.1387;0.0;;;;NaN;;;;0 / 0;745507;2018-04-04 20:39:48:073
2.0602;-1.2869;9.3087;0.0;;;;NaN;;;;0 / 0;746006;2018-04-04 20:39:48:572
2.0656;-1.1905;9.4314;0.0;;;;NaN;;;;0 / 0;746507;2018-04-04 20:39:49:073
2.2416;-1.254;9.3458;0.0;;;;NaN;;;;0 / 0;747006;2018-04-04 20:39:49:572
2.493;-1.3455;9.1081;0.0;;;;NaN;;;;0 / 0;747506;2018-04-04 20:39:50:072
2.475;-1.2863;9.2572;0.0;;;;NaN;;;;0 / 0;748007;2018-04-04 20:39:50:573
2.4205;-1.2151;9.3338;0.0;;;;NaN;;;;0 / 0;748506;2018-04-04 20:39:51:072
2.1482;-1.2905;9.3272;0.0;;;;NaN;;;;0 / 0;749006;2018-04-04 20:39:51:572
1.9638;-1.3485;9.2392;0.0;;;;NaN;;;;0 / 0;749507;2018-04-04 20:39:52:073
2.1015;-1.1947;9.3535;0.0;;;;NaN;;;;0 / 0;750007;2018-04-04 20:39:52:573
2.3044;-1.2731;9.3541;0.0;;;;NaN;;;;0 / 0;750506;2018-04-04 20:39:53:072
2.5109;-1.3198;9.232;0.0;;;;NaN;;;;0 / 0;751006;2018-04-04 20:39:53:572
2.4588;-1.2665;9.1704;0.0;;;;NaN;;;;0 / 0;751507;2018-04-04 20:39:54:073
2.2942;-1.2492;9.3392;0.0;;;;NaN;;;;0 / 0;752006;2018-04-04 20:39:54:572
2.1051;-1.318;9.2428;0.0;;;;NaN;;;;0 / 0;752506;2018-04-04 20:39:55:072
2.1482;-1.3497;9.3039;0.0;;;;NaN;;;;0 / 0;753006;2018-04-04 20:39:55:572
2.4283;-1.4251;9.2464;0.0;;;;NaN;;;;0 / 0;753508;2018-04-04 20:39:56:074
2.4816;-1.2671;9.3643;0.0;;;;NaN;;;;0 / 0;754006;2018-04-04 20:39:56:572
2.4792;-1.2659;9.1812;0.0;;;;NaN;;;;0 / 0;754507;2018-04-04 20:39:57:073
2.4511;-1.2025;9.1967;0.0;;;;NaN;;;;0 / 0;755006;2018-04-04 20:39:57:572
2.2865;-1.16;9.3404;0.0;;;;NaN;;;;0 / 0;755506;2018-04-04 20:39:58:072
1.8824;-1.333;9.3386;0.0;;;;NaN;;;;0 / 0;756007;2018-04-04 20:39:58:573
1.6125;-1.2246;9.2123;0.0;;;;NaN;;;;0 / 0;756506;2018-04-04 20:39:59:072
2.0351;-1.1935;9.35;0.0;;;;NaN;;;;0 / 0;757006;2018-04-04 20:39:59:572
2.2314;-1.2851;9.3661;0.0;;;;NaN;;;;0 / 0;757507;2018-04-04 20:40:00:073
2.1141;-1.1869;9.3146;0.0;;;;NaN;;;;0 / 0;758006;2018-04-04 20:40:00:572
2.047;-1.418;9.3314;0.0;;;;NaN;;;;0 / 0;758507;2018-04-04 20:40:01:073
2.0614;-1.2677;9.25;0.0;;;;NaN;;;;0 / 0;759006;2018-04-04 20:40:01:572
1.6735;-1.1815;9.5098;0.0;;;;NaN;;;;0 / 0;759507;2018-04-04 20:40:02:073
1.5628;-1.1726;9.511;0.0;;;;NaN;;;;0 / 0;760008;2018-04-04 20:40:02:574
1.7125;-1.3396;9.2374;0.0;;;;NaN;;;;0 / 0;760506;2018-04-04 20:40:03:072
1.9088;-1.2965;9.1566;0.0;;;;NaN;;;;0 / 0;761006;2018-04-04 20:40:03:572
2.3583;-1.236;9.399;0.0;;;;NaN;;;;0 / 0;761506;2018-04-04 20:40:04:072
2.1775;-1.1283;9.5164;0.0;;;;NaN;;;;0 / 0;762006;2018-04-04 20:40:04:572
1.646;-1.2929;9.2141;0.0;;;;NaN;;;;0 / 0;762506;2018-04-04 20:40:05:072
1.3629;-1.3378;9.1117;0.0;;;;NaN;;;;0 / 0;763006;2018-04-04 20:40:05:572
1.6855;-1.245;9.5798;0.0;;;;NaN;;;;0 / 0;763507;2018-04-04 20:40:06:073
2.0895;-1.257;9.5469;0.0;;;;NaN;;;;0 / 0;764007;2018-04-04 20:40:06:573
2.2015;-1.2989;9.2117;0.0;;;;NaN;;;;0 / 0;764506;2018-04-04 20:40:07:072
2.1219;-1.2647;9.3182;0.0;;;;NaN;;;;0 / 0;765007;2018-04-04 20:40:07:573
2.0027;-1.227;9.4188;0.0;;;;NaN;;;;0 / 0;765507;2018-04-04 20:40:08:073
1.7962;-1.1959;9.4673;0.0;;;;NaN;;;;0 / 0;766006;2018-04-04 20:40:08:572
1.6442;-1.2761;9.3619;0.0;;;;NaN;;;;0 / 0;766507;2018-04-04 20:40:09:073
1.8118;-1.3408;9.2901;0.0;;;;NaN;;;;0 / 0;767007;2018-04-04 20:40:09:573
2.068;-1.2294;9.4505;0.0;;;;NaN;;;;0 / 0;767506;2018-04-04 20:40:10:072
2.2972;-1.2055;9.5277;0.0;;;;NaN;;;;0 / 0;768007;2018-04-04 20:40:10:573
2.1674;-1.2498;9.2859;0.0;;;;NaN;;;;0 / 0;768506;2018-04-04 20:40:11:072
1.816;-1.3144;9.2015;0.0;;;;NaN;;;;0 / 0;769007;2018-04-04 20:40:11:573
1.634;-1.2839;9.4367;0.0;;;;NaN;;;;0 / 0;769506;2018-04-04 20:40:12:072
1.7909;-1.2659;9.3673;0.0;;;;NaN;;;;0 / 0;770007;2018-04-04 20:40:12:573
2.0542;-1.2073;9.4397;0.0;;;;NaN;;;;0 / 0;770506;2018-04-04 20:40:13:072
2.0877;-1.242;9.3535;0.0;;;;NaN;;;;0 / 0;771006;2018-04-04 20:40:13:572
2.0363;-1.3336;9.1818;0.0;;;;NaN;;;;0 / 0;771507;2018-04-04 20:40:14:073
1.9225;-1.2671;9.2279;0.0;;;;NaN;;;;0 / 0;772006;2018-04-04 20:40:14:572
1.8914;-1.2013;9.4505;0.0;;;;NaN;;;;0 / 0;772506;2018-04-04 20:40:15:072
2.0285;-1.2444;9.4625;0.0;;;;NaN;;;;0 / 0;773007;2018-04-04 20:40:15:573
2.0435;-1.2875;9.3667;0.0;;;;NaN;;;;0 / 0;773506;2018-04-04 20:40:16:072
1.9644;-1.3252;9.2709;0.0;;;;NaN;;;;0 / 0;774007;2018-04-04 20:40:16:573
1.9016;-1.245;9.2859;0.0;;;;NaN;;;;0 / 0;774506;2018-04-04 20:40:17:072
1.8417;-1.1815;9.4439;0.0;;;;NaN;;;;0 / 0;775006;2018-04-04 20:40:17:572
1.8387;-1.2576;9.4655;0.0;;;;NaN;;;;0 / 0;775506;2018-04-04 20:40:18:072
1.9315;-1.342;9.3703;0.0;;;;NaN;;;;0 / 0;776006;2018-04-04 20:40:18:572
1.9698;-1.2462;9.3966;0.0;;;;NaN;;;;0 / 0;776506;2018-04-04 20:40:19:072
1.9106;-1.2222;9.3308;0.0;;;;NaN;;;;0 / 0;777007;2018-04-04 20:40:19:573
1.9591;-1.3258;9.2398;0.0;;;;NaN;;;;0 / 0;777506;2018-04-04 20:40:20:072
1.9225;-1.2605;9.4499;0.0;;;;NaN;;;;0 / 0;778006;2018-04-04 20:40:20:572
1.9142;-1.1384;9.478;0.0;;;;NaN;;;;0 / 0;778507;2018-04-04 20:40:21:073
1.9166;-1.321;9.2344;0.0;;;;NaN;;;;0 / 0;779007;2018-04-04 20:40:21:573
1.804;-1.3527;9.1584;0.0;;;;NaN;;;;0 / 0;779506;2018-04-04 20:40:22:072
1.9716;-1.1366;9.4439;0.0;;;;NaN;;;;0 / 0;780006;2018-04-04 20:40:22:572
2.0363;-1.1187;9.5481;0.0;;;;NaN;;;;0 / 0;780507;2018-04-04 20:40:23:073
1.9112;-1.3521;9.2111;0.0;;;;NaN;;;;0 / 0;781006;2018-04-04 20:40:23:572
1.7783;-1.3276;9.1872;0.0;;;;NaN;;;;0 / 0;781507;2018-04-04 20:40:24:073
1.8657;-1.1797;9.4583;0.0;;;;NaN;;;;0 / 0;782006;2018-04-04 20:40:24:572
1.8986;-1.1301;9.5319;0.0;;;;NaN;;;;0 / 0;782506;2018-04-04 20:40:25:072
1.9088;-1.2845;9.2015;0.0;;;;NaN;;;;0 / 0;783007;2018-04-04 20:40:25:573
1.7986;-1.2576;9.2698;0.0;;;;NaN;;;;0 / 0;783507;2018-04-04 20:40:26:073
1.9213;-1.1708;9.4948;0.0;;;;NaN;;;;0 / 0;784006;2018-04-04 20:40:26:572
2.0411;-1.2887;9.3553;0.0;;;;NaN;;;;0 / 0;784506;2018-04-04 20:40:27:072
2.065;-1.3042;9.2949;0.0;;;;NaN;;;;0 / 0;785007;2018-04-04 20:40:27:573
2.0411;-1.2198;9.4457;0.0;;;;NaN;;;;0 / 0;785506;2018-04-04 20:40:28:072
1.7669;-1.2061;9.3703;0.0;;;;NaN;;;;0 / 0;786006;2018-04-04 20:40:28:572
1.6376;-1.2701;9.2853;0.0;;;;NaN;;;;0 / 0;786507;2018-04-04 20:40:29:073
1.7765;-1.2623;9.3607;0.0;;;;NaN;;;;0 / 0;787006;2018-04-04 20:40:29:572
2.0171;-1.2564;9.4373;0.0;;;;NaN;;;;0 / 0;787506;2018-04-04 20:40:30:072
2.0997;-1.2025;9.3883;0.0;;;;NaN;;;;0 / 0;788006;2018-04-04 20:40:30:572
2.0141;-1.2306;9.3601;0.0;;;;NaN;;;;0 / 0;788506;2018-04-04 20:40:31:072
2.0051;-1.2336;9.3913;0.0;;;;NaN;;;;0 / 0;789006;2018-04-04 20:40:31:572
1.8148;-1.2342;9.3224;0.0;;;;NaN;;;;0 / 0;789507;2018-04-04 20:40:32:073
1.7651;-1.2558;9.3272;0.0;;;;NaN;;;;0 / 0;790006;2018-04-04 20:40:32:572
1.9836;-1.2246;9.3266;0.0;;;;NaN;;;;0 / 0;790507;2018-04-04 20:40:33:073
2.0063;-1.1606;9.326;0.0;;;;NaN;;;;0 / 0;791007;2018-04-04 20:40:33:573
1.9824;-1.1983;9.3122;0.0;;;;NaN;;;;0 / 0;791506;2018-04-04 20:40:34:072
1.9614;-1.3222;9.3541;0.0;;;;NaN;;;;0 / 0;792006;2018-04-04 20:40:34:572
2.0225;-1.2617;9.3547;0.0;;;;NaN;;;;0 / 0;792507;2018-04-04 20:40:35:073
1.7627;-1.1899;9.3272;0.0;;;;NaN;;;;0 / 0;793006;2018-04-04 20:40:35:572
1.7496;-1.2971;9.3392;0.0;;;;NaN;;;;0 / 0;793506;2018-04-04 20:40:36:072
1.88;-1.3102;9.3158;0.0;;;;NaN;;;;0 / 0;794007;2018-04-04 20:40:36:573
1.7412;-1.1534;9.6397;0.0;;;;NaN;;;;0 / 0;794506;2018-04-04 20:40:37:072
1.7951;-1.1863;9.5415;0.0;;;;NaN;;;;0 / 0;795008;2018-04-04 20:40:37:574
1.8004;-1.2845;9.3667;0.0;;;;NaN;;;;0 / 0;795506;2018-04-04 20:40:38:072
1.6712;-1.3952;9.2147;0.0;;;;NaN;;;;0 / 0;796006;2018-04-04 20:40:38:572
1.6939;-1.2103;9.423;0.0;;;;NaN;;;;0 / 0;796506;2018-04-04 20:40:39:072
1.6915;-1.1325;9.511;0.0;;;;NaN;;;;0 / 0;797007;2018-04-04 20:40:39:573
1.8561;-1.3294;9.317;0.0;;;;NaN;;;;0 / 0;797506;2018-04-04 20:40:40:072
1.7992;-1.3294;9.2793;0.0;;;;NaN;;;;0 / 0;798006;2018-04-04 20:40:40:572
1.6406;-1.248;9.3745;0.0;;;;NaN;;;;0 / 0;798506;2018-04-04 20:40:41:072
1.7663;-1.2372;9.4804;0.0;;;;NaN;;;;0 / 0;799006;2018-04-04 20:40:41:572
1.7316;-1.309;9.426;0.0;;;;NaN;;;;0 / 0;799506;2018-04-04 20:40:42:072
1.7113;-1.2396;9.2524;0.0;;;;NaN;;;;0 / 0;800006;2018-04-04 20:40:42:572
1.7196;-1.2258;9.2853;0.0;;;;NaN;;;;0 / 0;800506;2018-04-04 20:40:43:072
1.8459;-1.1791;9.4649;0.0;;;;NaN;;;;0 / 0;801006;2018-04-04 20:40:43:572
1.8118;-1.2803;9.3817;0.0;;;;NaN;;;;0 / 0;801506;2018-04-04 20:40:44:072
1.7172;-1.306;9.2554;0.0;;;;NaN;;;;0 / 0;802006;2018-04-04 20:40:44:572
1.8711;-1.2276;9.4493;0.0;;;;NaN;;;;0 / 0;802506;2018-04-04 20:40:45:072
2.0375;-0.9846;9.5295;0.0;;;;NaN;;;;0 / 0;803007;2018-04-04 20:40:45:573
1.6855;-1.8555;11.8681;0.0;;;;NaN;;;;0 / 0;803506;2018-04-04 20:40:46:072
-0.079;-0.99;8.1774;0.0;;;;NaN;;;;0 / 0;804006;2018-04-04 20:40:46:572
-0.0299;-2.0045;9.2721;0.0;;;;NaN;;;;0 / 0;804506;2018-04-04 20:40:47:072
-0.2065;-1.3366;9.2584;0.0;;;;NaN;;;;0 / 0;805007;2018-04-04 20:40:47:573
-3.2322;-0.6476;11.1486;0.0;;;;NaN;;;;0 / 0;805506;2018-04-04 20:40:48:072
0.2693;-1.5868;8.2989;0.0;;;;NaN;;;;0 / 0;806006;2018-04-04 20:40:48:572
0.9463;-0.9493;9.2219;0.0;;;;NaN;;;;0 / 0;806506;2018-04-04 20:40:49:072
1.7304;-2.8838;9.01;0.0;;;;NaN;;;;0 / 0;807006;2018-04-04 20:40:49:572
1.9591;-2.7749;8.9034;0.0;;;;NaN;;;;0 / 0;807506;2018-04-04 20:40:50:072
1.3737;-2.7264;8.9705;0.0;;;;NaN;;;;0 / 0;808006;2018-04-04 20:40:50:572
1.5748;-2.6498;9.0902;0.0;;;;NaN;;;;0 / 0;808506;2018-04-04 20:40:51:072
4.5843;-2.0429;8.8292;0.0;;;;NaN;;;;0 / 0;809007;2018-04-04 20:40:51:573
-0.4016;-2.6905;8.9507;0.0;;;;NaN;;;;0 / 0;809506;2018-04-04 20:40:52:072
2.8706;-2.3535;8.6844;0.0;;;;NaN;;;;0 / 0;810007;2018-04-04 20:40:52:573
2.7497;-2.3744;8.9944;0.0;;;;NaN;;;;0 / 0;810506;2018-04-04 20:40:53:072
1.5161;-2.9143;9.1584;0.0;;;;NaN;;;;0 / 0;811006;2018-04-04 20:40:53:572
0.7242;-3.043;8.9477;0.0;;;;NaN;;;;0 / 0;811507;2018-04-04 20:40:54:073
0.4561;-2.7198;8.7706;0.0;;;;NaN;;;;0 / 0;812006;2018-04-04 20:40:54:572
0.3118;-3.0586;9.3314;0.0;;;;NaN;;;;0 / 0;812506;2018-04-04 20:40:55:072
0.2741;-3.0999;9.2709;0.0;;;;NaN;;;;0 / 0;813007;2018-04-04 20:40:55:573
1.3318;-2.8569;8.8885;0.0;;;;NaN;;;;0 / 0;813506;2018-04-04 20:40:56:072
0.6871;-2.9957;8.9902;0.0;;;;NaN;;;;0 / 0;814006;2018-04-04 20:40:56:572
0.592;-3.0592;9.1117;0.0;;;;NaN;;;;0 / 0;814507;2018-04-04 20:40:57:073
0.6428;-2.8593;8.9477;0.0;;;;NaN;;;;0 / 0;815006;2018-04-04 20:40:57:572
0.5357;-2.9532;9.0878;0.0;;;;NaN;;;;0 / 0;815507;2018-04-04 20:40:58:073
1.0678;-2.9299;9.2853;0.0;;;;NaN;;;;0 / 0;816006;2018-04-04 20:40:58:572
0.4776;-2.9688;9.0818;0.0;;;;NaN;;;;0 / 0;816507;2018-04-04 20:40:59:073
1.3126;-2.9652;8.8981;0.0;;;;NaN;;;;0 / 0;817006;2018-04-04 20:40:59:572
1.2743;-3.0706;9.0393;0.0;;;;NaN;;;;0 / 0;817507;2018-04-04 20:41:00:073
1.2115;-3.1544;9.1093;0.0;;;;NaN;;;;0 / 0;818006;2018-04-04 20:41:00:572
1.5;-2.7378;8.9836;0.0;;;;NaN;;;;0 / 0;818506;2018-04-04 20:41:01:072
1.1522;-2.6085;8.8322;0.0;;;;NaN;;;;0 / 0;819006;2018-04-04 20:41:01:572
-0.4878;-3.3567;9.0381;0.0;;;;NaN;;;;0 / 0;819506;2018-04-04 20:41:02:072
0.0168;1.6724;9.0363;0.0;;;;NaN;;;;0 / 0;820006;2018-04-04 20:41:02:572
3.3651;3.8469;8.2726;0.0;;;;NaN;;;;0 / 0;820506;2018-04-04 20:41:03:072
3.8469;3.9127;8.0822;0.0;;;;NaN;;;;0 / 0;821006;2018-04-04 20:41:03:572
2.6743;5.4534;7.7949;0.0;;;;NaN;;;;0 / 0;821506;2018-04-04 20:41:04:072
2.6079;5.5587;7.7949;0.0;;;;NaN;;;;0 / 0;822007;2018-04-04 20:41:04:573
2.6959;5.5534;7.9715;0.0;;;;NaN;;;;0 / 0;822506;2018-04-04 20:41:05:072
2.5804;5.4672;7.5812;0.0;;;;NaN;;;;0 / 0;823006;2018-04-04 20:41:05:572
2.6258;5.4887;7.7494;0.0;;;;NaN;;;;0 / 0;823506;2018-04-04 20:41:06:072
2.6671;5.521;7.8512;0.0;;;;NaN;;;;0 / 0;824006;2018-04-04 20:41:06:572
2.5905;5.3923;7.9212;0.0;;;;NaN;;;;0 / 0;824507;2018-04-04 20:41:07:073
3.0029;6.7834;9.3715;0.0;;;;NaN;;;;0 / 0;825007;2018-04-04 20:41:07:573
2.3733;5.773;7.747;0.0;;;;NaN;;;;0 / 0;825506;2018-04-04 20:41:08:072
2.463;5.7563;7.7434;0.0;;;;NaN;;;;0 / 0;826006;2018-04-04 20:41:08:572
2.3786;5.7323;7.783;0.0;;;;NaN;;;;0 / 0;826507;2018-04-04 20:41:09:073
2.2266;5.6581;7.6614;0.0;;;;NaN;;;;0 / 0;827006;2018-04-04 20:41:09:572
2.2529;5.7138;7.6962;0.0;;;;NaN;;;;0 / 0;827506;2018-04-04 20:41:10:072
2.3158;5.6072;7.9589;0.0;;;;NaN;;;;0 / 0;828006;2018-04-04 20:41:10:572
2.15;5.5779;7.7267;0.0;;;;NaN;;;;0 / 0;828506;2018-04-04 20:41:11:072
